Record Id,Session Id,Acc Timestamp,AccX,AccY,AccZ,Gyro Timestamp,GyroX,GyroY,GyroZ
9,82,139305566376090,-0.8632107973098755,2.441875457763672,9.025128364562988,139305570918510,-0.10170906037092209,-0.11713340878486633,-0.13240504264831543
9,82,139305575457457,-0.7920243144035339,2.489732027053833,9.263215065002441,139305579999419,-0.04642575979232788,-0.18906278908252716,-0.14004085958003998
9,82,139305584537550,-0.5688936114311218,2.5226333141326904,9.663414001464844,139305589069579,0.03741549700498581,-0.22968533635139465,-0.16264286637306213
9,82,139305593620482,-0.34576287865638733,2.6362924575805664,9.987043380737305,139305598168396,0.13454307615756989,-0.22815817594528198,-0.20494529604911804
9,82,139305602707581,-0.12681959569454193,2.7972097396850586,10.092328071594238,139305607253112,0.2347249686717987,-0.20891591906547546,-0.26893341541290283
9,82,139305611790222,0.15912270545959473,3.0622148513793945,10.073782920837402,139305616337707,0.34055736660957336,-0.19120082259178162,-0.3576616048812866
9,82,139305620875305,0.26919254660606384,3.266202926635742,9.950552940368652,139305625422547,0.4512766897678375,-0.19624045491218567,-0.46043968200683594
9,82,139305629962952,0.18364913761615753,3.2620155811309814,10.0073823928833,139305634506958,0.5664247870445251,-0.2015855312347412,-0.55069500207901
9,82,139305639046082,0.02153540402650833,2.9772696495056152,9.993025779724121,139305643585511,0.688903272151947,-0.22159136831760406,-0.593913733959198
9,82,139305648131592,-0.3170489966869354,2.4837498664855957,9.683155059814453,139305652669985,0.8052731156349182,-0.31352660059928894,-0.5426010489463806
9,82,139305657216432,-1.1048858165740967,1.2305090427398682,9.215357780456543,139305661752382,0.9075930118560791,-0.4879286289215088,-0.2987131178379059
9,82,139305666294069,-1.784447431564331,1.2197413444519043,9.322437286376953,139305670841066,0.9857838153839111,-0.6502660512924194,-0.018478672951459885
9,82,139305675386356,-1.9160526990890503,1.6002001762390137,9.050851821899414,139305679930606,1.0488556623458862,-0.8536841869354248,0.2200642079114914
9,82,139305684469363,-1.9435701370239258,1.8951154947280884,8.922237396240234,139305689003176,1.112385630607605,-1.0882564783096313,0.41431936621665955
9,82,139305693548037,-1.800000786781311,2.1756739616394043,9.308079719543457,139305698092410,1.197295904159546,-1.2417362928390503,0.5583308339118958
9,82,139305702632144,-1.3674981594085693,2.479562520980835,10.083952903747559,139305707169559,1.3170254230499268,-1.2287554740905762,0.6433938145637512
9,82,139305711718814,-0.7022934556007385,2.7014968395233154,10.770692825317383,139305716267521,1.4439327716827393,-1.0308351516723633,0.6656904220581055
9,82,139305720811466,-0.08853443711996078,3.0029923915863037,10.596016883850098,139305725351811,1.5091426372528076,-0.7709119319915771,0.6302602291107178
9,82,139305729891728,0.3080759048461914,3.4031920433044434,9.698708534240723,139305734434819,1.432020902633667,-0.5804746747016907,0.5400048494338989
9,82,139305738973210,0.39601215720176697,3.7286159992218018,8.448458671569824,139305743507878,1.176831841468811,-0.4980078935623169,0.4161519408226013
9,82,139305748059270,0.38703906536102295,3.7746777534484863,7.792226791381836,139305752599004,0.7944302558898926,-0.3816380500793457,0.3023782968521118
9,82,139305757147894,0.5479564070701599,3.5509488582611084,7.963912010192871,139305761679998,0.3677408695220947,-0.13041973114013672,0.22082778811454773
9,82,139305766218146,0.6598208546638489,3.0795626640319824,8.173882484436035,139305770772406,-0.04948008432984352,0.16523905098438263,0.17241671681404114
9,82,139305775313849,0.5772684812545776,2.647658348083496,8.268997192382812,139305779855536,-0.4219551682472229,0.3868304193019867,0.16814066469669342
9,82,139305784399176,0.4001995921134949,2.258824586868286,8.38265609741211,139305788943427,-0.7063129544258118,0.4893030524253845,0.20830504596233368
9,82,139305793480049,0.5276173949241638,2.1068804264068604,9.001200675964355,139305798024909,-0.8629998564720154,0.5732970237731934,0.2515237629413605
9,82,139305802562263,1.1880364418029785,2.376072883605957,9.46899700164795,139305807112922,-0.9046914577484131,0.570853590965271,0.23273965716362
9,82,139305811647286,1.7694923877716064,2.819343328475952,9.142376899719238,139305816197335,-0.8552113175392151,0.34284812211990356,0.13454307615756989
9,82,139305820735482,2.0650060176849365,2.9700911045074463,8.924630165100098,139305825280831,-0.7122688889503479,0.011759156361222267,-0.009010262787342072
9,82,139305829821541,2.169093608856201,2.8839495182037354,8.991629600524902,139305834363838,-0.4966334402561188,-0.3013092875480652,-0.17577648162841797
9,82,139305838901925,1.3513466119766235,2.693121910095215,8.994022369384766,139305843435312,-0.2926044464111328,-0.483957976102829,-0.25106561183929443
9,82,139305847988290,-3.544966697692871,2.848057270050049,8.422137260437012,139305852527658,-0.1966986060142517,-0.732122004032135,0.03695734590291977
9,82,139305857075936,-3.6538400650024414,3.379862070083618,9.829116821289062,139305861612313,-0.20005837082862854,-0.7509061098098755,0.4213443100452423
9,82,139305866160533,-2.833101987838745,3.224926710128784,10.497312545776367,139305870701670,-0.20586158335208893,-0.6062837839126587,0.703411340713501
9,82,139305875243968,-1.2197413444519043,2.6937201023101807,10.40758228302002,139305879785777,-0.22602014243602753,-0.40103304386138916,0.808174729347229
9,82,139305884329111,0.3810569941997528,2.709871530532837,10.307682037353516,139305888875986,-0.2773328125476837,-0.15775595605373383,0.778853178024292
9,82,139305893406566,1.2616157531738281,3.1477582454681396,10.143773078918457,139305897953746,-0.30925053358078003,0.016493361443281174,0.6708827614784241
9,82,139305902490062,1.9369899034500122,3.43908429145813,10.050453186035156,139305907039500,-0.29397889971733093,0.09697485715150833,0.5145012736320496
9,82,139305911576000,2.18045973777771,3.704089403152466,9.9469633102417,139305916124950,-0.22357667982578278,0.10705413669347763,0.31520646810531616
9,82,139305920665112,2.276770830154419,3.978665828704834,9.728020668029785,139305925209423,-0.11835514008998871,0.048716504126787186,0.08368854224681854
9,82,139305929749340,2.049452543258667,3.9930226802825928,9.247062683105469,139305934294384,0.0013744467869400978,-0.11010845750570297,-0.13500121235847473
9,82,139305938839123,1.521835207939148,3.837489366531372,8.755936622619629,139305943372143,0.13347405195236206,-0.3387247920036316,-0.29046642780303955
9,82,139305947917005,0.6604190468788147,3.352344512939453,8.782257080078125,139305952454969,0.26282477378845215,-0.5201517343521118,-0.3312416672706604
9,82,139305957003003,-0.010767702013254166,3.0424740314483643,9.165108680725098,139305961543470,0.3842342495918274,-0.6369797587394714,-0.2535090744495392
9,82,139305966094068,-0.28235307335853577,2.943770170211792,9.302696228027344,139305970630689,0.4550946056842804,-0.6502660512924194,-0.1111774742603302
9,82,139305975173659,-0.5300102233886719,2.8085756301879883,9.896116256713867,139305979713454,0.4407392740249634,-0.45631635189056396,0.06658431142568588
9,82,139305984255263,-0.18903298676013947,2.526820659637451,10.106684684753418,139305988793349,0.3680463135242462,-0.19104810059070587,0.20861047506332397
9,82,139305993325087,0.8745766878128052,2.431107759475708,10.233504295349121,139305997868484,0.2814561724662781,0.08811730891466141,0.23884831368923187
9,82,139306002413833,1.7479569911956787,2.283949136734009,10.046265602111816,139306006968521,0.20265454053878784,0.2926044464111328,0.22937989234924316
9,82,139306011500931,2.2749760150909424,2.066800594329834,9.5533447265625,139306016055496,0.1411098688840866,0.3599523603916168,0.19379699230194092
9,82,139306020593765,2.303689956665039,1.960319995880127,8.901898384094238,139306025139909,0.07009678333997726,0.3274237811565399,0.1647808998823166
9,82,139306029678605,1.6600207090377808,2.489732027053833,7.944170951843262,139306034222733,4.5814894838258624E-4,0.10537425428628922,0.20433442294597626
9,82,139306038761490,0.5814558863639832,3.6406795978546143,7.725826263427734,139306043300003,-0.011759156361222267,-0.15057829022407532,0.29596421122550964
9,82,139306047842240,0.04546362906694412,4.140181541442871,8.960522651672363,139306052385271,0.02687807008624077,-0.20433442294597626,0.35246923565864563
9,82,139306056931474,0.5784648656845093,4.629513740539551,9.827322959899902,139306061470536,0.1059851199388504,-0.13988813757896423,0.3176499307155609
9,82,139306066016924,0.32542386651039124,4.4410786628723145,10.344770431518555,139306070557573,0.15729780495166779,0.038637228310108185,0.2678644061088562
9,82,139306075095354,1.0372886657714844,4.186243057250977,10.447063446044922,139306079643145,0.15561792254447937,0.2539672255516052,0.22098049521446228
9,82,139306084181719,1.197009563446045,3.661616802215576,10.115059852600098,139306088728350,0.08200865983963013,0.4928155243396759,0.18356500566005707
9,82,139306093263934,1.2394821643829346,3.5365917682647705,9.649057388305664,139306097812030,-0.033597588539123535,0.698677122592926,0.1459967941045761
9,82,139306102348712,1.2783654928207397,3.5204403400421143,8.897710800170898,139306106896137,-0.17669276893138885,0.8316930532455444,0.09529497474431992
9,82,139306111425373,1.2598211765289307,3.514458179473877,8.23250675201416,139306115983112,-0.30970868468284607,0.8671231865882874,0.02672535367310047
9,82,139306120523578,1.113858938217163,3.6807594299316406,7.698906898498535,139306125069416,-0.4069889783859253,0.775340735912323,-0.05467243865132332
9,82,139306129611041,0.8626125454902649,3.861417531967163,7.284948348999023,139306134166280,-0.4631885588169098,0.5754350423812866,-0.12400564551353455
9,82,139306138690083,0.4875376224517822,3.8153557777404785,6.955337047576904,139306143229573,-0.46731191873550415,0.2396118938922882,-0.1310305893421173
9,82,139306147770589,0.24586252868175507,3.809971809387207,6.269793510437012,139306152313253,-0.4178318381309509,-0.27030786871910095,-0.08933904021978378
9,82,139306156857259,0.15613168478012085,3.8626139163970947,6.150750637054443,139306161398458,-0.31001409888267517,-0.8657487630844116,-0.0039706239476799965
9,82,139306165945944,0.5395814776420593,3.810570001602173,7.240681171417236,139306170488912,-0.11667526513338089,-1.3605495691299438,0.048105638474226
9,82,139306175030966,1.1413763761520386,3.758526086807251,8.630910873413086,139306179572896,0.09315694868564606,-1.554804801940918,-0.006108652334660292
9,82,139306184107443,1.3872389793395996,3.497110366821289,9.321240425109863,139306188646018,0.2171625941991806,-1.513113260269165,-0.1270599663257599
9,82,139306193193809,0.9493523836135864,2.111067771911621,9.715457916259766,139306197740928,0.2422080636024475,-1.3048081398010254,-0.19593502581119537
9,82,139306202280051,0.5605186820030212,0.9822536706924438,10.262218475341797,139306206825644,0.20876319706439972,-0.9305005073547363,-0.17821992933750153
9,82,139306211359702,0.4043870270252228,1.1066805124282837,10.275378227233887,139306215911522,0.16768251359462738,-0.5983424782752991,-0.10293079167604446
9,82,139306220451317,0.3978067636489868,2.00518536567688,10.018150329589844,139306224996788,0.14508049190044403,-0.384845107793808,-0.001527163083665073
9,82,139306229535728,0.7663014531135559,2.7116663455963135,9.933204650878906,139306234074242,0.1365283876657486,-0.23182335495948792,0.05772676691412926
9,82,139306238618919,1.3088740110397339,3.0131618976593018,9.773484230041504,139306243158227,0.1388191282749176,-0.15286903083324432,0.029168816283345222
9,82,139306247704858,1.48055899143219,3.1070802211761475,9.5264253616333,139306252243981,0.1540907621383667,-0.17119498550891876,-0.04764748737215996
9,82,139306256789086,1.1820544004440308,3.2033913135528564,9.259027481079102,139306261324547,0.18081611394882202,-0.28557950258255005,-0.1134682223200798
9,82,139306265863855,1.0019944906234741,3.270390272140503,9.044869422912598,139306270416834,0.20601430535316467,-0.4593706727027893,-0.15974126756191254
9,82,139306274959376,0.7974081635475159,3.304488182067871,9.139386177062988,139306279502772,0.22250767052173615,-0.6097962260246277,-0.17821992933750153
9,82,139306284037745,0.802193820476532,3.180659532546997,9.125029563903809,139306288584680,0.23258693516254425,-0.7664831876754761,-0.15256360173225403
9,82,139306293121668,0.9912267923355103,2.8893332481384277,8.788239479064941,139306297670436,0.2422080636024475,-0.9863946437835693,-0.08506298810243607
9,82,139306302207301,1.3615161180496216,2.7391836643218994,8.489734649658203,139306306754665,0.22892175614833832,-1.2063060998916626,-0.025045474991202354
9,82,139306311289882,1.6372889280319214,2.857030153274536,8.609375953674316,139306315838222,0.17776179313659668,-1.3083206415176392,-0.012522737495601177
9,82,139306320380581,1.7228323221206665,3.067000389099121,9.184849739074707,139306324926480,0.09804387390613556,-1.2431107759475708,-0.041233405470848083
9,82,139306329463955,1.6468602418899536,3.116053342819214,9.598209381103516,139306334003567,0.007941247895359993,-1.0850493907928467,-0.07788532227277756
9,82,139306338548977,1.6079767942428589,2.950350284576416,9.783653259277344,139306343088467,-0.07376197725534439,-0.9007207751274109,-0.096211276948452
9,82,139306347633512,1.5984054803848267,2.9216363430023193,9.845269203186035,139306352171354,-0.128434419631958,-0.7371616363525391,-0.08994990587234497
9,82,139306356717557,1.6366907358169556,3.0550363063812256,9.88833999633789,139306361256253,-0.13561208546161652,-0.6253733038902283,-0.07910704612731934
9,82,139306365804105,1.7228323221206665,3.1830523014068604,9.964909553527832,139306370346097,-0.08261952549219131,-0.6009386777877808,-0.0731511116027832
9,82,139306374889311,1.8041882514953613,3.377469062805176,9.893723487854004,139306379428923,0.011453723534941673,-0.6875288486480713,-0.08384125679731369
9,82,139306383966337,2.0991036891937256,3.5228331089019775,9.728020668029785,139306388512907,0.11316278576850891,-0.8379544019699097,-0.13118331134319305
9,82,139306393050871,2.2612173557281494,3.5509488582611084,9.66640567779541,139306397600127,0.2165517359972,-1.0167851448059082,-0.2054034322500229
9,82,139306402133270,2.4508485794067383,3.421138286590576,9.486345291137695,139306406675750,0.3043636083602905,-1.1936306953430176,-0.27748554944992065
9,82,139306411217803,2.6632115840911865,2.939582586288452,9.292527198791504,139306415769195,0.3674354553222656,-1.3271046876907349,-0.29077184200286865
9,82,139306420307952,2.7044878005981445,2.5052852630615234,8.935996055603027,139306424841766,0.39813143014907837,-1.4081971645355225,-0.2321287989616394
9,82,139306429390228,2.837289333343506,2.4233310222625732,8.689535140991211,139306433924103,0.39736783504486084,-1.4086552858352661,-0.12965615093708038
9,82,139306438479584,2.8426733016967773,2.6045875549316406,8.874979019165039,139306443016205,0.36590829491615295,-1.2710578441619873,-0.01618792861700058
9,82,139306447565521,3.0005996227264404,3.0143582820892334,9.464810371398926,139306452102020,0.33139440417289734,-0.9836457371711731,0.06291911751031876
9,82,139306456647310,3.2626137733459473,3.3852458000183105,10.03549861907959,139306461184663,0.3237585723400116,-0.5720753073692322,0.0959058403968811
9,82,139306465732515,3.291327476501465,3.6089746952056885,10.220941543579102,139306470275606,0.35353827476501465,-0.12751811742782593,0.11774427443742752
9,82,139306474817049,3.211766242980957,3.741776466369629,9.897313117980957,139306479357881,0.41263946890830994,0.2620611786842346,0.1492038369178772
9,82,139306483896517,3.060420274734497,3.8703906536102295,9.564111709594727,139306488446016,0.48915034532546997,0.5818491578102112,0.18005253374576569
9,82,139306492979342,2.8522446155548096,4.084548473358154,9.239884376525879,139306497527682,0.5815436840057373,0.7889324426651001,0.20586158335208893
9,82,139306502062839,2.5112674236297607,4.299304008483887,8.739784240722656,139306506611789,0.6855435371398926,0.7806857824325562,0.2154827117919922
9,82,139306511145786,2.6213371753692627,4.3208394050598145,8.107481002807617,139306515698215,0.775340735912323,0.5742133259773254,0.1569923609495163
9,82,139306520236240,2.8594231605529785,4.270590305328369,7.362117290496826,139306524771762,0.8304712772369385,0.2102903574705124,0.025045474991202354
9,82,139306529320224,3.0837502479553223,4.4584269523620605,6.553941249847412,139306533856723,0.8475755453109741,-0.31459560990333557,-0.1511891484260559
9,82,139306538408604,3.379862070083618,4.807778835296631,6.107679843902588,139306542945836,0.7860308289527893,-0.8907942175865173,-0.3404046595096588
9,82,139306547491918,3.5132617950439453,4.935794830322266,6.0987067222595215,139306552029759,0.6435465216636658,-1.39017653465271,-0.5106833577156067
9,82,139306556577000,3.5605201721191406,4.845465660095215,6.422336101531982,139306561113377,0.4738787114620209,-1.72935950756073,-0.6609562039375305
9,82,139306565659338,3.511467218399048,4.604987144470215,7.049853801727295,139306570203039,0.3243694305419922,-1.8782578706741333,-0.7735081315040588
9,82,139306574745764,3.31465744972229,4.088735580444336,7.7007012367248535,139306579287390,0.20784689486026764,-1.9045251607894897,-0.802524209022522
9,82,139306583824743,3.0179476737976074,3.5341989994049072,8.028517723083496,139306588371129,0.13271047174930573,-1.89979088306427,-0.7385360598564148
9,82,139306592909217,3.1208388805389404,3.2344980239868164,8.195417404174805,139306597456397,0.10018189996480942,-1.906663179397583,-0.6441574096679688
9,82,139306601992774,3.2626137733459473,3.0101709365844727,8.191229820251465,139306606540014,0.11133018881082535,-1.9734001159667969,-0.5636758804321289
9,82,139306611074072,3.2105698585510254,3.0340991020202637,8.157731056213379,139306615627784,0.13805554807186127,-2.0971004962921143,-0.5181664228439331
9,82,139306620166603,3.3678979873657227,3.1280174255371094,7.968099594116211,139306624712440,0.14355333149433136,-2.294257164001465,-0.517250120639801
9,82,139306629248878,4.222733974456787,2.9563324451446533,7.376473903656006,139306633781837,0.10903944820165634,-2.655125856399536,-0.5325217843055725
9,82,139306638334266,5.277370452880859,2.754737138748169,6.675975322723389,139306642873574,0.014813481830060482,-3.14626145362854,-0.5679519772529602
9,82,139306647421914,6.123831272125244,3.0215368270874023,6.407381057739258,139306651958474,-0.16004669666290283,-3.5668420791625977,-0.7026477456092834
9,82,139306656504983,6.876374244689941,3.5647075176239014,6.314060688018799,139306661043068,-0.37201693654060364,-3.8820486068725586,-0.9689850211143494
9,82,139306665591165,7.238886833190918,3.8668015003204346,6.139384746551514,139306670132059,-0.5716171264648438,-4.156174182891846,-1.2936599254608154
9,82,139306674674662,7.214958667755127,3.8386857509613037,6.2530436515808105,139306679215067,-0.7553348541259766,-4.353636741638184,-1.5981762409210205
9,82,139306683751138,7.16650390625,3.586841106414795,6.305685997009277,139306688294351,-0.9101892113685608,-4.532314777374268,-1.8504635095596313
9,82,139306692837747,7.074978351593018,3.211168050765991,6.2105712890625,139306697385905,-1.0384708642959595,-4.704731464385986,-2.0384573936462402
9,82,139306701924052,7.083353042602539,2.973680257797241,6.158527374267578,139306706468485,-1.1720976829528809,-4.852866172790527,-2.1876611709594727
9,82,139306710999797,7.254439830780029,2.8863422870635986,5.90668249130249,139306715549052,-1.3254249095916748,-5.019021511077881,-2.32586932182312
9,82,139306720092326,7.445267677307129,2.960519790649414,5.422734260559082,139306724634136,-1.5344934463500977,-5.192202091217041,-2.4889705181121826
9,82,139306729180949,7.802994728088379,3.2865419387817383,5.042873859405518,139306733721660,-1.819920301437378,-5.332700729370117,-2.689028739929199
9,82,139306738265911,7.923233985900879,3.7088751792907715,5.00997257232666,139306742802410,-2.196671485900879,-5.342169284820557,-2.9042060375213623
9,82,139306747348492,8.053044319152832,3.9876389503479004,4.4344987869262695,139306751886762,-2.5815165042877197,-5.397452354431152,-3.107013463973999
9,82,139306756434979,8.866005897521973,4.847858905792236,1.3268201351165771,139306760978253,-2.6816983222961426,-5.750380039215088,-3.3232595920562744
9,82,139306765518903,8.918049812316895,5.788238048553467,5.44426965713501,139306770061139,-2.883283853530884,-5.260313510894775,-3.4538321495056152
9,82,139306774602643,8.015955924987793,6.102894306182861,6.092724800109863,139306779142317,-2.962085485458374,-4.605007648468018,-3.458566188812256
9,82,139306783674421,6.75374174118042,5.216353416442871,6.62213659286499,139306788228315,-2.965139865875244,-3.9269471168518066,-3.360827922821045
9,82,139306792765974,5.766104221343994,3.850649833679199,6.37747049331665,139306797316389,-2.8683178424835205,-3.3759467601776123,-3.1552717685699463
9,82,139306801851606,5.782256126403809,3.424727439880371,7.4709906578063965,139306806400069,-2.504394769668579,-2.6755897998809814,-3.0276007652282715
9,82,139306810941024,6.33499813079834,3.0550363063812256,9.44626522064209,139306815484237,-2.059990406036377,-1.8289304971694946,-2.9967522621154785
9,82,139306820024581,5.149952411651611,1.9399809837341309,7.878966808319092,139306824565414,-1.8266397714614868,-1.064738154411316,-2.9571986198425293
9,82,139306829099654,5.863611698150635,2.091326951980591,6.844669342041016,139306833647995,-1.6954565048217773,-0.6582072973251343,-2.9993484020233154
9,82,139306838191879,6.175277233123779,2.0883359909057617,3.906881093978882,139306842733566,-1.6421585083007812,-0.8726209998130798,-3.042872428894043
9,82,139306847276535,6.135795593261719,2.6368906497955322,2.304288148880005,139306851808456,-1.6736180782318115,-1.4132367372512817,-3.05157732963562
9,82,139306856363510,5.789434432983398,3.170490026473999,4.095315933227539,139306860905320,-1.6052011251449585,-1.7641788721084595,-3.0245466232299805
9,82,139306865446458,5.870192050933838,4.037290096282959,7.204789161682129,139306869977647,-1.3738359212875366,-1.9587393999099731,-3.0083587169647217
9,82,139306874531053,5.923432350158691,4.13060998916626,6.420541286468506,139306879073350,-1.2133311033248901,-2.414597511291504,-2.9518535137176514
9,82,139306883614488,5.964110374450684,4.264009952545166,4.385445594787598,139306888157457,-1.202030062675476,-3.0694451332092285,-2.8486173152923584
9,82,139306892694628,4.7952165603637695,3.88594388961792,2.8839495182037354,139306897242785,-1.2835805416107178,-3.6502251625061035,-2.663525104522705
9,82,139306901779650,4.310669898986816,3.964907169342041,2.963510751724243,139306906329027,-1.3463469743728638,-3.98421573638916,-2.4463624954223633
9,82,139306910861925,3.342175006866455,4.586442947387695,4.7958149909973145,139306915398974,-1.2548699378967285,-3.924656391143799,-2.1682662963867188
9,82,139306919939746,2.7595226764678955,5.391627788543701,6.46241569519043,139306924484790,-1.0172433853149414,-3.536604404449463,-1.884519338607788
9,82,139306929039539,3.0203404426574707,5.209773063659668,6.282355785369873,139306933578051,-0.7464773058891296,-3.1528282165527344,-1.6363552808761597
9,82,139306938124011,3.2446675300598145,5.1427741050720215,4.466801643371582,139306942657704,-0.5204572081565857,-3.062420129776001,-1.4324790239334106
9,82,139306947197682,3.235694408416748,4.945366382598877,3.1926236152648926,139306951745045,-0.3355177342891693,-3.2899675369262695,-1.3148874044418335
9,82,139306956294971,3.4959139823913574,4.721039295196533,3.5359935760498047,139306960841663,-0.1547016203403473,-3.609908103942871,-1.3246612548828125
9,82,139306965376637,4.369294166564941,4.60857629776001,3.9667017459869385,139306969918447,0.006719517521560192,-3.9402334690093994,-1.4934128522872925
9,82,139306974458791,5.474180221557617,4.281956195831299,5.102096080780029,139306979001088,0.21212296187877655,-4.008497714996338,-1.7768542766571045
9,82,139306983531850,4.0767717361450195,4.9704909324646,8.22114086151123,139306988087697,0.49098294973373413,-3.7649152278900146,-2.029752492904663
9,82,139306992624320,3.834498405456543,5.962913990020752,6.926623344421387,139306997173880,0.6721044778823853,-3.5967745780944824,-2.258063316345215
9,82,139307001704642,3.9978084564208984,6.949355125427246,3.607180118560791,139307006244802,0.6835582256317139,-3.738495349884033,-2.4824037551879883
9,82,139307010797720,3.5090744495391846,6.500102519989014,1.399801254272461,139307015342337,0.6841690540313721,-4.1972551345825195,-2.520430088043213
9,82,139307019885856,3.2303106784820557,6.218348026275635,-2.0333011150360107,139307024425651,0.6962336897850037,-5.16135311126709,-2.551126003265381
9,82,139307028966361,3.8428730964660645,8.510671615600586,-3.1645078659057617,139307033504570,0.8600982427597046,-6.255107402801514,-2.785851001739502
9,82,139307038049552,4.106681823730469,9.936196327209473,-0.6873382925987244,139307042588676,1.3127493858337402,-6.822448253631592,-3.112969398498535
9,82,139307047135613,3.38105845451355,9.767501831054688,3.1854450702667236,139307051674614,1.8819230794906616,-6.457609176635742,-3.3536500930786133
9,82,139307056220879,1.9776679277420044,9.366703987121582,4.056432723999023,139307060763298,2.3353378772735596,-5.4677019119262695,-3.4434473514556885
9,82,139307065305047,0.8482556343078613,9.100502967834473,1.5852450132369995,139307069842705,2.4755313396453857,-4.463897705078125,-3.383429765701294
9,82,139307074388788,1.6007983684539795,8.74636459350586,-2.5010979175567627,139307078930414,2.2537872791290283,-3.939317226409912,-3.2180380821228027
9,82,139307083469110,3.696312665939331,8.638688087463379,-3.7740795612335205,139307088015191,1.8655824661254883,-3.808286666870117,-3.042719841003418
9,82,139307092550836,4.1868414878845215,9.156135559082031,-2.8689942359924316,139307097094171,1.4785993099212646,-3.5999815464019775,-2.802802562713623
9,82,139307101637995,3.2853455543518066,8.58484935760498,-0.8225327730178833,139307106186396,1.1977540254592896,-3.1558825969696045,-2.3574817180633545
9,82,139307110728144,3.128615617752075,8.834898948669434,0.12323036789894104,139307115270625,1.0250319242477417,-2.708271026611328,-1.8176295757293701
9,82,139307119811213,3.589233875274658,8.645268440246582,-0.7310073375701904,139307124355280,0.8487972617149353,-2.4891231060028076,-1.2481504678726196
9,82,139307128893855,3.817748546600342,8.422137260437012,-2.1517457962036133,139307133433650,0.6212499737739563,-2.4772112369537354,-0.7127270102500916
9,82,139307137979000,4.132404804229736,8.672187805175781,-2.5740790367126465,139307142517940,0.4132503271102905,-2.448806047439575,-0.3003929853439331
9,82,139307147064083,4.133601188659668,8.943174362182617,-2.441277265548706,139307151602169,0.3068070709705353,-2.30051851272583,-0.018325956538319588
9,82,139307156149838,4.016951084136963,9.552745819091797,-2.451446771621704,139307160692013,0.33169981837272644,-2.1030564308166504,0.13500121235847473
9,82,139307165234250,4.118646144866943,10.108479499816895,-2.6039891242980957,139307169776547,0.4558582007884979,-1.9356791973114014,0.17821992933750153
9,82,139307174317684,3.981656789779663,10.107282638549805,-3.5030922889709473,139307178855526,0.5994115471839905,-1.866040587425232,0.1771509200334549
9,82,139307183396848,3.7495529651641846,10.068399429321289,-4.273581027984619,139307187943601,0.7489207983016968,-1.8463401794433594,0.14538592100143433
9,82,139307192482603,3.864408493041992,10.258030891418457,-4.463810443878174,139307197030882,0.9085093140602112,-1.8219056129455566,0.06704246252775192
9,82,139307201565611,3.6837503910064697,10.186843872070312,-4.76829719543457,139307206114927,1.0497719049453735,-1.7806721925735474,-0.004581489134579897
9,82,139307210656005,3.507878065109253,9.948758125305176,-5.220541000366211,139307215199584,1.1650726795196533,-1.7275269031524658,-0.03176499158143997
9,82,139307219739806,3.655634880065918,10.1814603805542,-5.258227825164795,139307224282958,1.2692252397537231,-1.6584991216659546,-0.04596760869026184
9,82,139307228823607,3.685544967651367,10.585248947143555,-5.187041282653809,139307233360229,1.3365731239318848,-1.5741997957229614,-0.026572637259960175
9,82,139307237898498,3.366701364517212,10.334002494812012,-5.725426197052002,139307242447021,1.3046554327011108,-1.5016595125198364,0.046731192618608475
9,82,139307246994262,3.434896945953369,10.51226806640625,-6.766304016113281,139307251533508,1.0971139669418335,-1.3910928964614868,0.12858712673187256
9,82,139307256078491,2.788236618041992,10.195816993713379,-7.234101295471191,139307260620422,0.7499898076057434,-1.1242974996566772,0.26145032048225403
9,82,139307265163453,1.602592945098877,9.589237213134766,-6.5288166999816895,139307269706178,0.4300491213798523,-0.6516404747962952,0.4404338300228119
9,82,139307274246217,0.9421738982200623,9.66939640045166,-5.970092296600342,139307278788636,0.22602014243602753,-0.11713340878486633,0.5700899958610535
9,82,139307283327576,0.4450650215148926,10.195219039916992,-5.843272686004639,139307287877015,0.1495092660188675,0.3199406862258911,0.6189591884613037
9,82,139307292409975,0.3128615617752075,10.39083194732666,-5.829514026641846,139307296958132,0.2050980031490326,0.5642867684364319,0.6012440919876099
9,82,139307301493654,0.5497509837150574,10.29033374786377,-5.633901119232178,139307306044069,0.399200439453125,0.5723807215690613,0.543059229850769
9,82,139307310583864,0.607776939868927,10.584650993347168,-5.705685615539551,139307315128848,0.6870706677436829,0.35445454716682434,0.45433104038238525
9,82,139307319669803,0.589830756187439,10.879566192626953,-5.743372440338135,139307324211856,1.0115928649902344,0.003512475173920393,0.3510948121547699
9,82,139307328751773,0.7028916478157043,10.594222068786621,-5.662614822387695,139307333291079,1.3374894857406616,-0.37079519033432007,0.2617557644844055
9,82,139307337837527,0.7567301392555237,9.79083251953125,-5.352744102478027,139307342376774,1.6464345455169678,-0.688903272151947,0.22327125072479248
9,82,139307346921757,0.778863787651062,9.253045082092285,-5.32821798324585,139307351460087,1.8573358058929443,-0.9077457785606384,0.2171625941991806
9,82,139307356008426,1.4291132688522339,8.905488014221191,-6.2536420822143555,139307360550052,1.8620699644088745,-1.0047205686569214,0.2119702398777008
9,82,139307365093449,1.8065811395645142,8.037490844726562,-6.655636310577393,139307369633000,1.6271922588348389,-0.8996517658233643,0.2503020465373993
9,82,139307374171697,2.266003131866455,7.70668363571167,-6.925426959991455,139307378716680,1.2898420095443726,-0.7376197576522827,0.26450464129447937
9,82,139307383254216,2.294118642807007,7.511668682098389,-6.81595516204834,139307387802678,1.056491494178772,-0.5809328556060791,0.2444988191127777
9,82,139307392339971,1.8035900592803955,7.492526054382324,-5.780461311340332,139307396887396,0.9619600176811218,-0.5180137157440186,0.18997909128665924
9,82,139307401423468,1.9268203973770142,7.463811874389648,-5.547161102294922,139307405972845,1.0082330703735352,-0.5905539989471436,0.03833179548382759
9,82,139307410513372,2.321636199951172,7.350750923156738,-6.321238994598389,139307415058722,1.0844385623931885,-0.8660541772842407,-0.19486601650714874
9,82,139307419594671,2.4681966304779053,7.059424877166748,-6.729215621948242,139307424130500,1.101084589958191,-1.1310169696807861,-0.42959097027778625
9,82,139307428681403,2.6422743797302246,6.664011001586914,-6.581458568572998,139307433220100,1.0319041013717651,-1.185231328010559,-0.6281222105026245
9,82,139307437767524,2.8654050827026367,6.687341213226318,-6.347560405731201,139307442302802,0.8802568316459656,-1.010829210281372,-0.7881689071655273
9,82,139307446845832,3.10528564453125,7.141379356384277,-6.979265213012695,139307451389046,0.6571382880210876,-0.7571674585342407,-0.935081958770752
9,82,139307455936470,3.1549365520477295,7.796414375305176,-7.378866672515869,139307460479866,0.4444044530391693,-0.5067127346992493,-1.066265344619751
9,82,139307465021859,3.0376882553100586,8.09671401977539,-7.269993305206299,139307469564461,0.29275718331336975,-0.2793181240558624,-1.1633929014205933
9,82,139307474110481,3.3822548389434814,8.874381065368652,-7.7216386795043945,139307478645761,0.16432274878025055,-0.09025534242391586,-1.256244421005249
9,82,139307483183480,3.855435371398926,9.484550476074219,-8.100900650024414,139307487729867,0.025656340643763542,0.12965615093708038,-1.321606993675232
9,82,139307492267709,3.675973892211914,9.780662536621094,-8.158329010009766,139307496816598,-0.14034628868103027,0.5140430927276611,-1.3125966787338257
9,82,139307501353097,3.9332022666931152,10.060623168945312,-7.8628153800964355,139307505901804,-0.2542726695537567,0.912021815776825,-1.2709051370620728
9,82,139307510441721,3.879363775253296,10.86281681060791,-8.514859199523926,139307514985972,-0.26221391558647156,0.9683741331100464,-1.214552879333496
9,82,139307519525095,3.4061830043792725,11.470593452453613,-7.998608112335205,139307524064768,-0.46822822093963623,0.812908947467804,-1.056796908378601
9,82,139307528609201,3.0580272674560547,12.298510551452637,-8.547162055969238,139307533149058,-1.3608551025390625,0.18768835067749023,-0.6811147332191467
9,82,139307537696056,3.092125177383423,12.99242877960205,-6.535995006561279,139307542233287,-2.4167356491088867,-0.5467243790626526,-0.18845193088054657
9,82,139307546779430,1.6055840253829956,11.5914306640625,-1.908874273300171,139307551316478,-2.892141580581665,-0.7988590002059937,0.3764457106590271
9,82,139307555861583,0.24227328598499298,11.154142379760742,1.8197416067123413,139307560408581,-2.585028886795044,-0.5348125100135803,0.8443684577941895
9,82,139307564949658,0.6478567123413086,11.501700401306152,0.841675341129303,139307569491894,-1.9987510442733765,-0.3833179473876953,1.0535898208618164
9,82,139307574028882,2.5351955890655518,11.867203712463379,-4.34536600112915,139307578575024,-1.4873042106628418,-0.8969029188156128,0.988379955291748
9,82,139307583112194,3.1627132892608643,11.541780471801758,-6.244668960571289,139307587660413,-0.8947648406028748,-1.671021819114685,0.7762570381164551
9,82,139307592196607,2.6350958347320557,10.405787467956543,-4.952544689178467,139307596744947,-0.1472185254096985,-2.1846067905426025,0.5632177591323853
9,82,139307601281874,2.049452543258667,8.98803997039795,-4.0833516120910645,139307605835157,0.3666718602180481,-2.327702045440674,0.46761733293533325
9,82,139307610371717,2.011765718460083,7.53140926361084,-4.719842433929443,139307614915297,0.4537201523780823,-2.268906354904175,0.5319108963012695
9,82,139307619452956,2.0333011150360107,6.7794647216796875,-4.895116806030273,139307623993300,0.23182335495948792,-2.0917553901672363,0.6400340795516968
9,82,139307628539016,2.38983154296875,6.872784614562988,-5.136792182922363,139307633080153,-0.0064140851609408855,-2.0109684467315674,0.6139195561408997
9,82,139307637623855,2.2743778228759766,6.805187702178955,-3.610769271850586,139307642162429,-0.15042556822299957,-1.7513506412506104,0.517250120639801
9,82,139307646708755,1.7024933099746704,6.366703033447266,-3.06999135017395,139307651246719,-0.28588494658470154,-1.478141188621521,0.4743368625640869
9,82,139307655794143,2.0105693340301514,5.737988471984863,-4.918447017669678,139307660336257,-0.47540587186813354,-1.4440854787826538,0.5032002329826355
9,82,139307664876115,2.5232315063476562,5.760720729827881,-4.213162422180176,139307669406571,-0.566119372844696,-1.2441798448562622,0.5097670555114746
9,82,139307673956681,3.122633457183838,5.7649078369140625,-5.566303730010986,139307678502152,-0.6661485433578491,-1.1366674900054932,0.4720461070537567
9,82,139307683036942,3.4121651649475098,5.587240695953369,-5.669793128967285,139307687586197,-0.7038694620132446,-1.0577131509780884,0.4086688458919525
9,82,139307692125078,2.902493953704834,5.323431968688965,-5.462215900421143,139307696675554,-0.6145304441452026,-1.0366383790969849,0.3597996234893799
9,82,139307701210894,2.293520450592041,5.1182475090026855,-5.1218366622924805,139307705760820,-0.41004329919815063,-1.1218540668487549,0.3245221674442291
9,82,139307710298783,2.053041934967041,5.484947681427002,-5.341378211975098,139307714840837,-0.2958115041255951,-1.4175127744674683,0.3173444867134094
9,82,139307719381732,1.893320918083191,6.0370917320251465,-5.565705299377441,139307723914630,-0.3833179473876953,-1.8303049802780151,0.3651446998119354
9,82,139307728467975,2.266003131866455,7.018746852874756,-3.7914273738861084,139307733006183,-0.5329799056053162,-1.9536998271942139,0.4103487432003021
9,82,139307737554217,2.6626133918762207,8.21874713897705,-2.0410776138305664,139307742088946,-0.6806566119194031,-1.6145168542861938,0.40744712948799133
9,82,139307746637104,3.2590243816375732,9.040083885192871,-1.3932210206985474,139307751175678,-0.8060367107391357,-0.9584475755691528,0.3341432809829712
9,82,139307755724567,3.8213376998901367,9.435498237609863,-2.0715861320495605,139307760265033,-0.9363036751747131,-0.28619036078453064,0.21105393767356873
9,82,139307764807331,4.06540584564209,9.655637741088867,-3.1268210411071777,139307769346637,-1.0497719049453735,0.21533000469207764,0.10781771689653397
9,82,139307773880513,4.140779495239258,9.522835731506348,-2.9312076568603516,139307778433674,-1.0447323322296143,0.5710062980651855,0.060322944074869156
9,82,139307782969868,3.8123645782470703,9.343972206115723,-2.7421748638153076,139307787520039,-0.9046914577484131,0.7611380815505981,0.07620543986558914
9,82,139307792055318,3.5066816806793213,8.901898384094238,-3.142374277114868,139307796602925,-0.699288010597229,0.7590000629425049,0.14737124741077423
9,82,139307801138754,3.538984775543213,8.58784008026123,-3.3176486492156982,139307805688131,-0.494189977645874,0.6591235995292664,0.235030397772789
9,82,139307810228353,3.871587038040161,8.677571296691895,-2.9413771629333496,139307814772909,-0.31841349601745605,0.5493205785751343,0.2981022298336029
9,82,139307819310751,4.109074592590332,8.629117012023926,-2.84087872505188,139307823847799,-0.1895209401845932,0.36453384160995483,0.3318525552749634
9,82,139307828397055,4.085146427154541,8.734400749206543,-2.355733871459961,139307832935386,-0.0809396430850029,0.20922134816646576,0.33246341347694397
9,82,139307837482443,4.022335052490234,8.7176513671875,-1.3764712810516357,139307842019614,0.027030786499381065,0.1342376321554184,0.285121351480484
9,82,139307846565390,3.8321053981781006,8.733802795410156,-1.1156535148620605,139307851101706,0.09804387390613556,0.03588833287358284,0.23365595936775208
9,82,139307855651817,2.8283164501190186,8.195417404174805,-1.4416756629943848,139307860194298,0.12018773704767227,-0.05803219974040985,0.26083946228027344
9,82,139307864738182,2.4191436767578125,7.451249599456787,-3.463012456893921,139307869277183,0.03237585723400116,-0.16829337179660797,0.32757648825645447
9,82,139307873814354,2.561516523361206,7.091129779815674,-4.727619171142578,139307878361351,-0.12461651116609573,-0.20051652193069458,0.3706424832344055
9,82,139307882898766,2.6668007373809814,7.381259441375732,-4.6510491371154785,139307887447167,-0.265573650598526,-0.02886338345706463,0.36422839760780334
9,82,139307891983239,2.953341245651245,7.7838521003723145,-4.660022258758545,139307896531945,-0.4004221558570862,0.2099849283695221,0.3003929853439331
9,82,139307901068994,3.125624656677246,8.149953842163086,-4.402793884277344,139307905617395,-0.5167919993400574,0.42668938636779785,0.18936823308467865
9,82,139307910157373,3.012563705444336,8.73200798034668,-3.78544545173645,139307914701562,-0.5836817622184753,0.593302845954895,0.05849034711718559
9,82,139307919240808,2.923431158065796,9.037093162536621,-3.671786308288574,139307923780909,-0.6259841322898865,0.6252205967903137,-0.06505715101957321
9,82,139307928325526,2.4532413482666016,9.005986213684082,-3.606581926345825,139307932866602,-0.6304129362106323,0.5705481171607971,-0.13866640627384186
9,82,139307937411525,2.1206390857696533,9.07418155670166,-3.617349624633789,139307941948817,-0.6035348773002625,0.470060795545578,-0.17669276893138885
9,82,139307946494533,1.8550357818603516,9.180662155151367,-3.5324044227600098,139307951033046,-0.5525276064872742,0.34513887763023376,-0.17272214591503143
9,82,139307955580715,1.5284154415130615,9.347561836242676,-4.004388809204102,139307960122707,-0.4737260043621063,0.17409659922122955,-0.13698652386665344
9,82,139307964665188,1.4673985242843628,9.710074424743652,-3.7148571014404297,139307969206142,-0.34605515003204346,0.025503624230623245,-0.0884227454662323
9,82,139307973744289,1.3591232299804688,9.972088813781738,-3.586841106414795,139307978290799,-0.2064724564552307,-0.15103642642498016,-0.010079276748001575
9,82,139307982829495,1.1599208116531372,9.972088813781738,-4.024727821350098,139307987375882,-0.09728029370307922,-0.37430769205093384,0.07819075137376785
9,82,139307991912503,0.898504912853241,9.797411918640137,-4.063611030578613,139307996463529,-0.014355333521962166,-0.4992296099662781,0.18845193088054657
9,82,139308001006192,0.8877372145652771,9.507282257080078,-3.978067636489868,139308005546720,0.05146539583802223,-0.4619668424129486,0.3425426781177521
9,82,139308010088529,1.2532408237457275,9.486345291137695,-4.223930358886719,139308014628385,0.1388191282749176,-0.30146199464797974,0.5254968404769897
9,82,139308019169340,1.709073543548584,9.393623352050781,-4.137190341949463,139308023709440,0.30314189195632935,-0.07070764899253845,0.7289149761199951
9,82,139308028258573,2.2193429470062256,9.545567512512207,-5.523830890655518,139308032793059,0.44944411516189575,-0.10583240538835526,0.8654433488845825
9,82,139308037339201,2.1948165893554688,9.45583724975586,-5.30548620223999,139308041876617,0.6033821702003479,-0.3199406862258911,0.9314168095588684
9,82,139308046426239,1.5074782371520996,8.685946464538574,-4.384249210357666,139308050967193,0.7698429226875305,-0.569631814956665,0.9886853694915771
9,82,139308055509490,1.2065808773040771,8.144570350646973,-4.665405750274658,139308060051361,0.8462010622024536,-0.8756753206253052,0.9950994849205017
9,82,139308064592925,0.8482556343078613,7.752745151519775,-4.034298896789551,139308069135834,0.7883216142654419,-1.081536889076233,0.9111055135726929
9,82,139308073672028,0.4378865361213684,7.519444942474365,-2.851048231124878,139308078219635,0.6053674817085266,-1.035416603088379,0.7469354867935181
9,82,139308082757477,0.2602194547653198,7.141379356384277,-1.9621145725250244,139308087305084,0.32100969552993774,-0.7583891749382019,0.5523748993873596
9,82,139308091840912,0.2787638306617737,6.960721015930176,-1.9908283948898315,139308096390291,-0.005192354787141085,-0.4121813178062439,0.3770565688610077
9,82,139308100930513,0.17347964644432068,6.7794647216796875,-2.252244234085083,139308105475069,-0.275958389043808,-0.08811730891466141,0.24617868661880493
9,82,139308110015107,0.5724828243255615,6.844669342041016,-2.203789710998535,139308114557160,-0.44318273663520813,0.18539759516716003,0.08720101416110992
9,82,139308119092866,1.201795220375061,7.417151927947998,-2.135594129562378,139308123637606,-0.5177083015441895,0.3982841372489929,-0.1235474944114685
9,82,139308128182650,1.6965112686157227,7.657032489776611,-2.186441659927368,139308132723849,-0.5100724697113037,0.4915938079357147,-0.33857205510139465
9,82,139308137270479,1.6151553392410278,7.342974662780762,-2.495713949203491,139308141807711,-0.4398229718208313,0.40256020426750183,-0.4873177409172058
9,82,139308146353976,1.3812568187713623,7.063612461090088,-2.4059832096099854,139308150895969,-0.3003929853439331,0.14095716178417206,-0.5679519772529602
9,82,139308155439365,1.3860424757003784,7.164111137390137,-2.2157537937164307,139308159980625,-0.13072516024112701,-0.23869559168815613,-0.6178901791572571
9,82,139308164521640,1.196411371231079,7.23589563369751,-2.406581401824951,139308169063815,0.004886921960860491,-0.6656904220581055,-0.6336199641227722
9,82,139308173602146,0.7776673436164856,7.028318405151367,-2.5357937812805176,139308178148045,0.08414668589830399,-1.0065531730651855,-0.6052147150039673
9,82,139308182685399,0.5252245664596558,6.69571590423584,-3.059821844100952,139308187233799,0.07788532227277756,-1.2330315113067627,-0.5140430927276611
9,82,139308191771153,0.7339983582496643,6.561717987060547,-2.77866530418396,139308196318394,0.00931569468230009,-1.266018271446228,-0.4303545653820038
9,82,139308200854893,1.1198409795761108,6.951149940490723,-2.42093825340271,139308205403723,-0.10186178237199783,-1.0882564783096313,-0.427452951669693
9,82,139308209944311,1.8442680835723877,7.574480056762695,-2.7140591144561768,139308214489599,-0.24785856902599335,-0.8619308471679688,-0.5051855444908142
9,82,139308219027196,2.6153552532196045,7.99382209777832,-2.792423963546753,139308223566686,-0.41951170563697815,-0.6473644375801086,-0.6123924255371094
9,82,139308228111852,2.8582265377044678,8.115856170654297,-3.067598581314087,139308232650977,-0.619111955165863,-0.4925101101398468,-0.6630942225456238
9,82,139308237197180,2.5154547691345215,7.936394691467285,-3.2542388439178467,139308241735327,-0.8452847599983215,-0.3949243724346161,-0.5960517525672913
9,82,139308246283118,2.296511650085449,7.703692436218262,-3.597010612487793,139308250825842,-1.0754282474517822,-0.3084869384765625,-0.44425174593925476
9,82,139308255367347,2.4975085258483887,8.030911445617676,-3.6394832134246826,139308259909584,-1.280220866203308,-0.1563815027475357,-0.28267788887023926
9,82,139308264451393,2.6183462142944336,8.648259162902832,-3.720241069793701,139308268992774,-1.4391984939575195,0.03451388701796532,-0.12553280591964722
9,82,139308273529945,2.538186550140381,8.800801277160645,-3.867997884750366,139308278076759,-1.5280793905258179,0.15851953625679016,0.0403171069920063
9,82,139308282614663,2.7014968395233154,9.251250267028809,-4.219742774963379,139308287163979,-1.5373951196670532,0.11285735666751862,0.1742493063211441
9,82,139308291698891,3.0975089073181152,9.786046028137207,-4.4135613441467285,139308296248757,-1.4798210859298706,-0.07620543986558914,0.265573650598526
9,82,139308300789162,3.279961585998535,10.213165283203125,-4.579862594604492,139308305331948,-1.3898711204528809,-0.3084869384765625,0.3520110845565796
9,82,139308309868814,3.4504501819610596,10.126425743103027,-4.650450706481934,139308314415811,-1.2921327352523804,-0.42730024456977844,0.45524731278419495
9,82,139308318955667,3.8494534492492676,10.129416465759277,-4.463810443878174,139308323496500,-1.1956160068511963,-0.37461310625076294,0.5630650520324707
9,82,139308328040384,4.321437835693359,10.551151275634766,-4.286741733551025,139308332580301,-1.0914634466171265,-0.18799377977848053,0.6530149579048157
9,82,139308337127116,4.515854358673096,10.526026725769043,-4.514060020446777,139308341664469,-0.9758572578430176,-0.02122756652534008,0.7457137703895569
9,82,139308346211833,4.562514781951904,10.231111526489258,-4.485345840454102,139308350753520,-0.8260425329208374,0.12049316614866257,0.8303185701370239
9,82,139308355295757,4.886143684387207,10.429716110229492,-4.275375843048096,139308359837077,-0.6795876026153564,0.2561052441596985,0.8559749126434326
9,82,139308364379558,5.132604598999023,10.342975616455078,-4.084548473358154,139308368921794,-0.5752823352813721,0.42149701714515686,0.8429940342903137
9,82,139308373460186,5.041079044342041,10.111470222473145,-3.6089746952056885,139308378005962,-0.5123631954193115,0.6200281977653503,0.8413141369819641
9,82,139308382543682,4.898108005523682,10.055238723754883,-3.4618160724639893,139308387092632,-0.5004513263702393,0.7715228199958801,0.8529205918312073
9,82,139308391627545,4.893322467803955,10.012765884399414,-3.366701364517212,139308396177167,-0.5167919993400574,0.8313875794410706,0.8831584453582764
9,82,139308400716901,4.7503509521484375,9.909276962280273,-3.2057840824127197,139308405262250,-0.5316054821014404,0.8057312369346619,0.9314168095588684
9,82,139308409802960,4.879563808441162,10.308877944946289,-2.758326292037964,139308414345136,-0.5259549617767334,0.7812966704368591,0.9584475755691528
9,82,139308418884809,4.735994338989258,10.143773078918457,-2.444866418838501,139308423423933,-0.5216789245605469,0.773202657699585,1.0036516189575195
9,82,139308427969587,4.3447675704956055,9.68494987487793,-2.2127628326416016,139308432509931,-0.5280929803848267,0.7997753024101257,1.0755809545516968
9,82,139308437055097,4.2346978187561035,9.64367389678955,-1.657029628753662,139308441593427,-0.5447390675544739,0.8720101118087769,1.1426234245300293
9,82,139308446141525,4.186243057250977,9.263813018798828,-1.4859428405761719,139308450682723,-0.5626068711280823,0.8904888033866882,1.1985175609588623
9,82,139308455225082,3.989433526992798,8.81814956665039,-1.3860424757003784,139308459767013,-0.5581781268119812,0.8243626356124878,1.2194397449493408
9,82,139308464307234,3.8458642959594727,8.553144454956055,-0.8255237936973572,139308468845381,-0.5400048494338989,0.7492262125015259,1.1910345554351807
9,82,139308473387863,3.218346357345581,8.471190452575684,-0.6083751320838928,139308477935165,-0.5619960427284241,0.6363688707351685,1.0731375217437744
9,82,139308482474533,2.557927370071411,8.608179092407227,-0.1824527233839035,139308487020371,-0.6285803318023682,0.5555819272994995,0.8888089060783386
9,82,139308491553329,2.1822543144226074,8.511270523071289,0.3200400173664093,139308496093186,-0.709061861038208,0.6151412725448608,0.698066234588623
9,82,139308500646470,1.6307085752487183,8.361120223999023,-0.038285162299871445,139308505191881,-0.7872526049613953,0.7247915863990784,0.5076290369033813
9,82,139308509733873,1.077966570854187,7.969295978546143,0.046061836183071136,139308514274400,-0.7913759350776672,0.8633053302764893,0.3649919927120209
9,82,139308518814744,0.8374879360198975,8.2695951461792,-0.19740787148475647,139308523353196,-0.7105889916419983,0.9975429177284241,0.21212296187877655
9,82,139308527897203,1.4602199792861938,9.854840278625488,-0.41994038224220276,139308532433153,-0.5859724879264832,1.111163854598999,-0.05146539583802223
9,82,139308536983812,2.05603289604187,10.269396781921387,-0.9649057388305664,139308541522082,-0.5195409059524536,1.0598511695861816,-0.26771169900894165
9,82,139308546070604,2.0374884605407715,8.851051330566406,-1.4350954294204712,139308550612047,-0.5487096905708313,0.8822421431541443,-0.2509129047393799
9,82,139308555155261,2.3270199298858643,8.970093727111816,-0.625723123550415,139308559696216,-0.6058256030082703,0.8301658630371094,-0.14737124741077423
9,82,139308564233996,3.201596736907959,9.171091079711914,-0.28115665912628174,139308568766162,-0.6359107494354248,0.7774787545204163,-0.02733621932566166
9,82,139308573315906,3.5539398193359375,8.194819450378418,-0.17946170270442963,139308577861194,-0.5833762884140015,0.6719517707824707,0.2119702398777008
9,82,139308582404225,3.7495529651641846,6.908677101135254,-0.5964110493659973,139308586949696,-0.45982882380485535,0.41828998923301697,0.5836817622184753
9,82,139308591487354,3.868596076965332,6.926623344421387,-1.0049854516983032,139308596035145,-0.289244681596756,0.025961773470044136,0.9027060866355896
9,82,139308600575733,3.4923245906829834,8.003393173217773,-0.9116654396057129,139308605121754,-0.08704829961061478,-0.3784310221672058,1.06351637840271
9,82,139308609660574,3.961916208267212,9.319445610046387,-0.5401797294616699,139308614206716,0.07330382615327835,-0.5896376967430115,1.0488556623458862
9,82,139308618742177,4.298107624053955,10.384251594543457,0.0023928226437419653,139308623283437,0.15806138515472412,-0.5018258094787598,0.903775155544281
9,82,139308627831411,4.953741073608398,11.898310661315918,0.050847481936216354,139308632366568,0.20112738013267517,-0.3289509415626526,0.6152940392494202
9,82,139308636910819,5.3904314041137695,13.165908813476562,-0.010169495828449726,139308641441946,0.21151208877563477,-0.21914790570735931,0.24113905429840088
9,82,139308645998770,5.416752338409424,13.941781044006348,0.3409772217273712,139308650542044,0.2272418737411499,-0.11621711403131485,-0.1950187236070633
9,82,139308655086417,5.405386447906494,14.717055320739746,0.388235479593277,139308659624931,0.2480112910270691,0.004581489134579897,-0.6873761415481567
9,82,139308664164970,4.491328239440918,14.021342277526855,-0.09930214285850525,139308668708000,0.2606867551803589,0.1241583600640297,-1.074817419052124
9,82,139308673245536,4.514060020446777,13.701302528381348,-0.7316055297851562,139308677793082,0.27290403842926025,0.19226983189582825,-1.378722906112671
9,82,139308682330070,3.9523448944091797,13.252050399780273,-0.7806583642959595,139308686878838,0.28787025809288025,0.2736676335334778,-1.5749633312225342
9,82,139308691414421,3.2470602989196777,12.440882682800293,-1.3716856241226196,139308695964348,0.3019201457500458,0.2681698501110077,-1.7017178535461426
9,82,139308700504937,2.581855535507202,11.20798110961914,-1.0211371183395386,139308705048577,0.3280346393585205,0.2765692472457886,-1.722181797027588
9,82,139308709587456,1.2586246728897095,8.873184204101562,-1.6325032711029053,139308714127130,0.29306259751319885,0.1973094791173935,-1.5514450073242188
9,82,139308718671990,0.6562315821647644,7.360920429229736,-2.9928228855133057,139308723213739,0.19120082259178162,0.0913243517279625,-1.2646437883377075
9,82,139308727763910,0.27756741642951965,7.795217990875244,-3.284747362136841,139308732294916,0.0555887371301651,0.10720685124397278,-0.9775370955467224
9,82,139308736839044,0.8003991842269897,9.166903495788574,-3.198007345199585,139308741378352,-0.08368854224681854,0.17989981174468994,-0.8219192028045654
9,82,139308745927424,1.0115658044815063,9.990034103393555,-2.7080769538879395,139308750470026,-0.22968533635139465,0.2724458873271942,-0.8049677014350891
9,82,139308755011958,1.2747762203216553,10.554740905761719,-2.5322046279907227,139308759553034,-0.3640756905078888,0.3926336467266083,-0.8950703144073486
9,82,139308764090815,1.5463616847991943,10.830513954162598,-2.0273189544677734,139308768637569,-0.44623705744743347,0.5768095254898071,-1.0114401578903198
9,82,139308773175411,1.4781662225723267,10.426724433898926,-1.908276081085205,139308777722652,-0.4665483236312866,0.7628179788589478,-1.0685560703277588
9,82,139308782258907,1.8532410860061646,10.439885139465332,-1.6791633367538452,139308786807064,-0.4011857509613037,0.9613491892814636,-1.0580185651779175
9,82,139308791343685,2.059622049331665,9.739984512329102,-1.5828521251678467,139308795893979,-0.24526239931583405,1.0062477588653564,-0.9201157689094543
9,82,139308800432797,2.2432711124420166,9.05264663696289,-2.213959217071533,139308804977780,-0.040164388716220856,0.7345654368400574,-0.7092145681381226
9,82,139308809517025,2.438286304473877,9.19442081451416,-2.304288148880005,139308814055905,0.1892155110836029,0.36590829491615295,-0.5079344511032104
9,82,139308818600643,2.6189444065093994,9.290133476257324,-1.7042878866195679,139308823139524,0.432034432888031,0.1062905490398407,-0.3623957931995392
9,82,139308827686155,2.837887763977051,9.445667266845703,-1.6420745849609375,139308832224485,0.6317873597145081,-0.06276640295982361,-0.30405816435813904
9,82,139308836770750,2.885145902633667,9.464810371398926,-1.48055899143219,139308841308042,0.7777841687202454,-0.12751811742782593,-0.31093040108680725
9,82,139308845852476,2.8079774379730225,9.152546882629395,-1.1096714735031128,139308850398375,0.8657487630844116,-0.09056077152490616,-0.35613444447517395
9,82,139308854940856,2.6877379417419434,8.748159408569336,-1.3519448041915894,139308859482604,0.894001305103302,-0.07009678333997726,-0.43417248129844666
9,82,139308864019530,2.1756739616394043,7.65164852142334,-1.552941918373108,139308868566771,0.9059131741523743,-0.166460782289505,-0.44806966185569763
9,82,139308873101561,1.4530415534973145,6.052046775817871,-1.6965112686157227,139308877652221,0.9469938278198242,-0.3930917978286743,-0.24617868661880493
9,82,139308882188599,1.220937728881836,4.744967460632324,-1.8436698913574219,139308886736755,1.0053315162658691,-0.7118107080459595,0.1823432743549347
9,82,139308891272339,1.2903295755386353,4.398007869720459,-1.4297115802764893,139308895821776,1.0503827333450317,-0.9657779335975647,0.6757696866989136
9,82,139308900361999,1.6863417625427246,5.230710506439209,-0.397208571434021,139308904906495,1.0201449394226074,-0.9781479835510254,1.0771081447601318
9,82,139308909445252,1.8532410860061646,5.358128070831299,-0.349352091550827,139308913985047,0.8862127661705017,-0.8730791807174683,1.4929546117782593
9,82,139308918530640,2.3018953800201416,4.581058979034424,-0.30927231907844543,139308923068971,0.7661777138710022,-0.7305948138237,2.157728672027588
9,82,139308927615052,3.800400495529175,6.024528980255127,-2.6261229515075684,139308932152956,0.6194173693656921,-0.9219483733177185,2.5894577503204346
9,82,139308936699892,3.9158542156219482,6.447460651397705,-2.4598217010498047,139308941239137,0.5418374538421631,-1.1800389289855957,2.774244546890259
9,82,139308945786257,4.164707660675049,7.085147857666016,-1.841277003288269,139308950327089,0.5091561675071716,-1.2690725326538086,2.7142269611358643
9,82,139308954866641,4.884349346160889,7.904689788818359,-1.6444673538208008,139308959408511,0.437226802110672,-1.0942124128341675,2.432159900665283
9,82,139308963940494,5.123033046722412,8.322834968566895,-1.140179991722107,139308968495731,0.3510948121547699,-0.7209737300872803,2.041053533554077
9,82,139308973032412,4.741976261138916,8.164310455322266,-0.7465606927871704,139308977582583,0.2243402600288391,-0.3627012372016907,1.6545284986495972
9,82,139308982116886,4.427918434143066,7.769495010375977,-1.3130614757537842,139308986665470,-0.06765332818031311,-0.09376781433820724,1.2695306539535522
9,82,139308991202335,4.60558557510376,8.511270523071289,-0.9798609018325806,139308995748173,-0.4332561790943146,0.18967366218566895,0.8840747475624084
9,82,139309000280949,4.094717979431152,7.863413333892822,-0.5246263742446899,139309004840092,-0.7415903806686401,0.4355469346046448,0.6452264189720154
9,82,139309009372563,3.6329028606414795,7.566105365753174,-0.3026920557022095,139309013909917,-0.903164267539978,0.5838344693183899,0.5433646440505981
9,82,139309018457097,3.224926710128784,7.730013370513916,-0.39900317788124084,139309022997990,-0.9352346658706665,0.6476698517799377,0.5360342264175415
9,82,139309027547246,2.630908489227295,7.746763229370117,-0.381655216217041,139309032080998,-0.9317222237586975,0.7087563872337341,0.5943718552589417
9,82,139309036617865,2.3910279273986816,8.443074226379395,-0.059820566326379776,139309041166327,-0.9416487812995911,0.8158105611801147,0.6241515874862671
9,82,139309045713750,2.3946173191070557,9.57607650756836,0.3678964674472809,139309050258977,-0.9799805879592896,0.9636399149894714,0.5842925906181335
9,82,139309054798834,2.4646072387695312,10.479366302490234,0.3768695592880249,139309059337896,-1.0914634466171265,1.1151344776153564,0.49296826124191284
9,82,139309063870307,2.3886351585388184,10.65105152130127,0.41934216022491455,139309068423957,-1.2095131874084473,1.161102056503296,0.4567744731903076
9,82,139309072961310,1.7599210739135742,9.868000984191895,-0.2907279431819916,139309077511115,-1.2863295078277588,0.8833111524581909,0.55695641040802
9,82,139309082046088,1.4889339208602905,9.42353343963623,-1.9363917112350464,139309086595100,-1.2498302459716797,0.15882496535778046,0.7283040881156921
9,82,139309091130135,1.231107234954834,9.268598556518555,-1.485344648361206,139309095680184,-1.0236574411392212,-0.619111955165863,0.9459248185157776
9,82,139309100220650,1.0510473251342773,9.667003631591797,-0.07417750358581543,139309104761360,-0.6742424964904785,-1.1336132287979126,1.1516337394714355
9,82,139309109290657,1.3417752981185913,10.051051139831543,0.13100704550743103,139309113842171,-0.30925053358078003,-1.4869986772537231,1.2928962707519531
9,82,139309118387277,1.555932879447937,10.092926025390625,0.0364905446767807,139309122929758,0.029474247246980667,-1.718058466911316,1.3654365539550781
9,82,139309127473031,1.6139588356018066,10.417153358459473,0.45523449778556824,139309132011422,0.3332269787788391,-1.7455474138259888,1.4037683010101318
9,82,139309136556893,2.155933141708374,10.594820022583008,0.26201409101486206,139309141089059,0.594524621963501,-1.7348573207855225,1.4660766124725342
9,82,139309145643321,2.6111676692962646,10.028319358825684,-1.0205388069152832,139309150185007,0.7848091125488281,-1.9857702255249023,1.6282613277435303
9,82,139309154729685,2.868396043777466,9.771689414978027,-2.6123640537261963,139309159269358,0.8914051055908203,-2.495995283126831,1.8645133972167969
9,82,139309163805613,3.4438700675964355,10.140782356262207,-2.225325107574463,139309168353159,0.9676105380058289,-2.881298542022705,2.1277964115142822
9,82,139309172891063,3.7944185733795166,9.844670295715332,-2.200200319290161,139309177438731,1.0025825500488281,-3.1053335666656494,2.4159719944000244
9,82,139309181974803,4.34955358505249,9.594022750854492,-2.555534601211548,139309186521068,1.018770456314087,-3.2446107864379883,2.702467918395996
9,82,139309191048839,4.6372904777526855,8.791828155517578,-3.1627132892608643,139309195596447,1.0157161951065063,-3.3463199138641357,2.993239641189575
9,82,139309200148876,4.684548377990723,7.297510623931885,-3.6227335929870605,139309204695446,1.032820463180542,-3.366325616836548,3.3206634521484375
9,82,139309209236096,4.342374801635742,5.810371398925781,-3.8225340843200684,139309213771130,1.1187996864318848,-3.2678236961364746,3.657097578048706
9,82,139309218316785,4.566103935241699,5.850451469421387,-4.34955358505249,139309222857556,1.2360857725143433,-3.118314266204834,3.8673877716064453
9,82,139309227402356,4.936991214752197,5.8821563720703125,-4.538586139678955,139309231941297,1.3532192707061768,-2.967430591583252,3.9663479328155518
9,82,139309236485792,4.767100811004639,4.76829719543457,-5.2181477546691895,139309241025098,1.4152220487594604,-2.9078712463378906,3.9829940795898438
9,82,139309245572766,5.533402442932129,4.948955535888672,-5.700900077819824,139309250113538,1.4095715284347534,-2.9442176818847656,3.7875173091888428
9,82,139309254656691,5.853442192077637,4.05703067779541,-6.180062770843506,139309259197157,1.4051427841186523,-3.0503556728363037,3.475059747695923
9,82,139309263734999,5.674578666687012,3.1310083866119385,-6.104090690612793,139309268281813,1.457371711730957,-3.1111366748809814,3.1224377155303955
9,82,139309272819045,6.206982135772705,3.3230323791503906,-6.192625045776367,139309277367873,1.5219707489013672,-3.0059151649475098,2.6974282264709473
9,82,139309281904739,6.019145488739014,2.6261229515075684,-5.68893575668335,139309286453445,1.61100435256958,-2.6586382389068604,2.353052854537964
9,82,139309290993362,5.642275810241699,1.9986051321029663,-6.269793510437012,139309295537551,1.6992744207382202,-2.3299927711486816,2.135126829147339
9,82,139309300077895,6.361319065093994,2.2683959007263184,-7.560721397399902,139309304622208,1.700343370437622,-2.001194477081299,1.9546160697937012
9,82,139309309160721,6.488736629486084,2.111665964126587,-7.232306480407715,139309313700455,1.6424639225006104,-1.5125023126602173,1.8212947845458984
9,82,139309318246170,7.351947784423828,3.0340991020202637,-7.6151580810546875,139309322784867,1.514487624168396,-1.1398745775222778,1.6022995710372925
9,82,139309327331009,8.26540756225586,3.142374277114868,-8.287541389465332,139309331868730,1.2738068103790283,-0.9796751141548157,1.3267992734909058
9,82,139309336416460,8.200202941894531,2.225325107574463,-8.049455642700195,139309340958635,1.034194827079773,-0.8904888033866882,1.1383473873138428
9,82,139309345500994,8.49990463256836,2.5531418323516846,-7.658827304840088,139309350043535,0.8823948502540588,-0.8020660877227783,1.0500773191452026
9,82,139309354585649,8.452646255493164,2.764308452606201,-6.760920524597168,139309359126360,0.8436049222946167,-0.6559165716171265,1.1189523935317993
9,82,139309363663531,8.763114929199219,3.5162527561187744,-5.72841739654541,139309368210467,0.8610145449638367,-0.565203070640564,1.2826642990112305
9,82,139309372748248,8.736793518066406,4.229912281036377,-5.633901119232178,139309377297930,0.8524624705314636,-0.6403394937515259,1.4088079929351807
9,82,139309381833880,8.676973342895508,4.609772682189941,-6.033502101898193,139309386382404,0.7509061098098755,-0.8790351152420044,1.4463762044906616
9,82,139309390922993,9.441479682922363,5.804987907409668,-6.103492259979248,139309395466206,0.5429064631462097,-1.136362075805664,1.2962560653686523
9,82,139309400006611,10.14736270904541,6.585047721862793,-6.734001159667969,139309404550068,0.25014930963516235,-1.3548991680145264,0.932485818862915
9,82,139309409091205,10.27178955078125,6.960721015930176,-6.2871413230896,139309413629109,0.0607810914516449,-1.3629931211471558,0.5543602108955383
9,82,139309418174153,10.25204849243164,6.618547439575195,-6.387042045593262,139309422713460,-0.015577063895761967,-1.1711814403533936,0.31123584508895874
9,82,139309427262227,10.249655723571777,5.828317642211914,-6.719046115875244,139309431803242,0.014508049935102463,-0.8124507665634155,0.21960605680942535
9,82,139309436346089,9.952945709228516,5.163113117218018,-7.0097737312316895,139309440888021,0.05849034711718559,-0.4323398768901825,0.16523905098438263
9,82,139309445429769,9.475577354431152,4.450650215148926,-7.648059368133545,139309449973532,0.024892758578062057,-0.1889100819826126,0.0659734457731247
9,82,139309454513387,8.822935104370117,3.759124279022217,-7.844270706176758,139309459057333,-0.0354301854968071,-0.07406741380691528,-0.09514226019382477
9,82,139309463595785,8.4562349319458,3.6233317852020264,-7.602595806121826,139309468128379,-0.07208210229873657,0.01878410577774048,-0.3013092875480652
9,82,139309472682212,8.24147891998291,3.391227960586548,-7.503293514251709,139309477225242,-0.0754418596625328,0.15302173793315887,-0.4925101101398468
9,82,139309481770225,8.050053596496582,2.7828526496887207,-7.850851058959961,139309486310080,-0.06352998316287994,0.27641651034355164,-0.6580545902252197
9,82,139309490851523,7.957930088043213,2.4843480587005615,-7.4470624923706055,139309495394798,0.07925976812839508,0.6287330389022827,-0.807563841342926
9,82,139309499937157,7.949554920196533,2.6500511169433594,-7.836493968963623,139309504478660,0.21105393767356873,0.9572258591651917,-0.9045386910438538
9,82,139309509020286,7.106084823608398,1.9363917112350464,-7.762914657592773,139309513563255,0.25702154636383057,1.0899362564086914,-0.902553379535675
9,82,139309518104759,6.659823417663574,1.9818553924560547,-7.341179847717285,139309522648827,0.2428189367055893,1.1073459386825562,-0.912021815776825
9,82,139309527188806,6.903891563415527,2.74755859375,-6.936792850494385,139309531732445,0.21319197118282318,1.2151637077331543,-0.9801332950592041
9,82,139309536273339,7.509873867034912,3.5150563716888428,-6.982854843139648,139309540812768,0.19883663952350616,1.4098769426345825,-1.0253373384475708
9,82,139309545358239,8.353343963623047,3.8985064029693604,-8.159524917602539,139309549901331,0.09651670604944229,1.4975361824035645,-1.0824532508850098
9,82,139309554443567,8.644071578979492,4.263411521911621,-8.049455642700195,139309558985498,-0.12186761945486069,1.6096298694610596,-1.2147055864334106
9,82,139309563526819,8.930013656616211,4.671986103057861,-7.611568927764893,139309568070825,-0.41752639412879944,1.831221342086792,-1.5276212692260742
9,82,139309572611903,8.462217330932617,3.9278182983398438,-7.5080790519714355,139309577151210,-0.7666358947753906,2.1284072399139404,-2.0418171882629395
9,82,139309581696132,7.441678524017334,2.9593234062194824,-6.739983081817627,139309586238734,-1.1016954183578491,2.3887884616851807,-2.5228734016418457
9,82,139309590781886,6.605985164642334,2.0237298011779785,-5.724828243255615,139309595324611,-1.330159068107605,2.5386033058166504,-2.7789788246154785
9,82,139309599865017,6.545566558837891,2.754138946533203,-4.551148891448975,139309604408413,-1.2724323272705078,2.7375926971435547,-2.82265567779541
9,82,139309608950344,6.951149940490723,3.0065815448760986,-5.605186939239502,139309613492397,-1.125366449356079,2.7403414249420166,-2.7487409114837646
9,82,139309618033962,6.620342254638672,3.4851462841033936,-5.197809219360352,139309622576992,-0.9199630618095398,2.5957190990448,-2.643671989440918
9,82,139309627118070,6.365506649017334,4.076173305511475,-5.1182475090026855,139309631660978,-0.7383833527565002,2.2437081336975098,-2.554180383682251
9,82,139309636202176,6.21774959564209,3.8195431232452393,-5.313262462615967,139309640745816,-0.6870706677436829,1.8107572793960571,-2.5329527854919434
9,82,139309645288114,6.0263237953186035,3.460021495819092,-4.895116806030273,139309649830289,-0.8029823899269104,1.4996742010116577,-2.604271173477173
9,82,139309654371428,6.192026615142822,3.4642090797424316,-4.671388149261475,139309658914824,-1.056796908378601,1.3156510591506958,-2.8014280796051025
9,82,139309663456633,6.4289164543151855,3.411566972732544,-4.247260093688965,139309668000822,-1.3658946752548218,1.300837516784668,-3.1173980236053467
9,82,139309672540617,6.69990348815918,3.644867181777954,-3.623929977416992,139309677083586,-1.7021759748458862,1.5212072134017944,-3.572950839996338
9,82,139309681625274,6.8482584953308105,3.9487555027008057,-3.5473594665527344,139309686167754,-2.0670151710510254,1.959502935409546,-4.131281852722168
9,82,139309690708892,7.189235687255859,5.098506927490234,-3.1998021602630615,139309695251861,-2.45674729347229,2.7374398708343506,-4.801706314086914
9,82,139309699793426,7.466204643249512,6.876972198486328,-2.796013355255127,139309704337005,-2.8209757804870605,3.793931245803833,-5.523901462554932
9,82,139309708878449,7.249056339263916,7.271788120269775,-3.1722846031188965,139309713421783,-2.87809157371521,4.541325092315674,-5.9310431480407715
9,82,139309717964020,5.9060845375061035,6.389434814453125,-2.9527430534362793,139309722505463,-2.6616926193237305,4.855615139007568,-5.8945441246032715
9,82,139309727046906,3.830909013748169,5.608776092529297,-1.0612168312072754,139309731590180,-2.3354904651641846,4.9371657371521,-5.582239151000977
9,82,139309736131990,1.8352949619293213,5.226522922515869,-2.008774518966675,139309740676240,-1.8777997493743896,4.1715989112854,-4.915021896362305
9,82,139309745215730,-0.12622138857841492,4.167100429534912,-1.4291132688522339,139309749759492,-1.458898901939392,3.0909781455993652,-3.989713668823242
9,82,139309754301118,-1.9250258207321167,3.675973892211914,0.8333004713058472,139309758843782,-1.1455250978469849,2.3374757766723633,-2.942232370376587
9,82,139309763384859,-2.407777786254883,4.512265205383301,1.5780665874481201,139309767927340,-0.9535606503486633,1.795027494430542,-1.965153455734253
9,82,139309772468844,-2.0721843242645264,5.396413326263428,1.9256240129470825,139309777012057,-0.8565858006477356,1.3765848875045776,-1.21974515914917
9,82,139309781553561,-1.8945173025131226,6.147759437561035,2.5387847423553467,139309786097445,-0.7730499505996704,1.0093021392822266,-0.7232644557952881
9,82,139309790639133,-1.4231312274932861,6.51745080947876,2.7349963188171387,139309795181247,-0.7137960195541382,0.6562219858169556,-0.456163614988327
9,82,139309799722812,-0.6891329288482666,6.9930243492126465,2.276172637939453,139309804265598,-0.7322747111320496,0.48915034532546997,-0.40454551577568054
9,82,139309808807468,-0.21954147517681122,7.992027759552002,1.059422254562378,139309813351596,-0.6771441102027893,0.32849279046058655,-0.4579962193965912
9,82,139309817892186,0.5066801905632019,8.904291152954102,0.1866401731967926,139309822435581,-0.32299500703811646,0.25335636734962463,-0.3914119005203247
9,82,139309826976964,-1.8478572368621826,5.066203594207764,-0.6933203339576721,139309831519139,0.12538009881973267,0.4124867618083954,-0.009621127508580685
9,82,139309836060338,-0.4492524564266205,7.320840835571289,0.3840480446815491,139309840603306,0.446389764547348,1.088409185409546,0.42898011207580566
9,82,139309845135656,-0.1585244983434677,6.498906135559082,1.4267204999923706,139309849691564,0.6959282159805298,2.110234022140503,1.051146388053894
9,82,139309854233129,-1.872383713722229,5.532804012298584,1.8167506456375122,139309858776403,0.8828529715538025,3.1119003295898438,1.9734001159667969
9,82,139309863315099,-1.6630117893218994,5.450251579284668,1.3232308626174927,139309867857213,0.8938485980033875,3.780034065246582,2.9303205013275146
9,82,139309872398535,1.5272190570831299,6.912864685058594,-1.516451358795166,139309876941138,0.6285803318023682,3.810271978378296,3.5153768062591553
9,82,139309881483313,4.974678039550781,9.598808288574219,-5.453841209411621,139309886026831,0.11102475970983505,3.4439055919647217,3.4683401584625244
9,82,139309890567664,7.301698207855225,12.342777252197266,-4.872983455657959,139309895110632,-0.49754974246025085,3.4384076595306396,2.7061331272125244
9,82,139309899652931,10.674382209777832,15.166308403015137,-4.845465660095215,139309904194252,-0.9034696817398071,3.266449213027954,1.2344059944152832
9,82,139309908735878,11.703295707702637,15.30030632019043,-2.079961061477661,139309913278663,-0.8431467413902283,3.1086931228637695,-0.28848111629486084
9,82,139309917820350,11.773285865783691,16.481164932250977,-1.067797064781189,139309922363990,-0.5296201705932617,2.867095947265625,-1.7724255323410034
9,82,139309926904824,12.699308395385742,16.122838973999023,-2.0961127281188965,139309931448464,-0.04917465150356293,2.135432243347168,-3.143512487411499
9,82,139309935990090,12.982857704162598,14.322837829589844,-2.665006160736084,139309940532509,0.23319780826568604,1.5427402257919312,-4.264755725860596
9,82,139309945073891,12.433106422424316,12.494721412658691,-0.13579268753528595,139309949613565,0.15546520054340363,1.7719674110412598,-5.013523578643799
9,82,139309954146036,11.032109260559082,11.5914306640625,1.500898003578186,139309958702493,-0.00855211354792118,2.1980459690093994,-5.30475378036499
9,82,139309963242532,7.837092399597168,9.083752632141113,0.2512463629245758,139309967789713,-0.043218716979026794,1.9804251194000244,-5.041776180267334
9,82,139309972327799,3.826721668243408,6.091528415679932,-0.12502498924732208,139309976870402,0.09208793938159943,1.2217304706573486,-4.242001056671143
9,82,139309981411540,0.11545369029045105,4.685146808624268,1.290927767753601,139309985954875,0.40194934606552124,0.4732678532600403,-3.1083877086639404
9,82,139309990496318,-1.6217355728149414,5.0602216720581055,1.6037893295288086,139309995039225,0.773202657699585,-0.26022860407829285,-2.0948095321655273
9,82,139309999580302,-2.3958137035369873,6.222535133361816,0.4833501875400543,139310004125041,0.9398161768913269,-0.717613935470581,-1.3483322858810425
9,82,139310008669536,-2.8049862384796143,6.364908218383789,1.92741858959198,139310013208843,0.9187413454055786,-0.6575964093208313,-0.8303185701370239
9,82,139310017749737,-2.2713868618011475,6.818946361541748,1.8909281492233276,139310022291789,0.922711968421936,-0.5958990454673767,-0.4499022662639618
9,82,139310026833965,-5.949155330657959,5.851647853851318,-0.7537391185760498,139310031378522,1.1296426057815552,-1.3060299158096313,0.12736541032791138
9,82,139310035918134,-1.0875378847122192,7.571488857269287,-1.843071699142456,139310040458783,1.4184291362762451,-2.33365797996521,-0.007635815534740686
9,82,139310044990888,11.6123685836792,13.573286056518555,-2.3736801147460938,139310049546429,1.504713773727417,-3.5463781356811523,-1.5774067640304565
9,82,139310054087384,6.067600250244141,8.12662410736084,-6.61914587020874,139310058633467,0.9346238374710083,-4.848742961883545,-3.0057623386383057
9,82,139310063171492,-1.9106688499450684,4.358526229858398,-2.5710878372192383,139310067714826,0.19883663952350616,-5.086827754974365,-3.3899967670440674
9,82,139310072256208,-2.173879384994507,5.415555953979492,4.217350006103516,139310076799299,-0.5900958180427551,-3.698636293411255,-3.578448534011841
9,82,139310081341535,1.1407781839370728,10.595418930053711,9.792028427124023,139310085883712,-1.1936306953430176,-1.4521794319152832,-3.7701075077056885
9,82,139310090425094,-2.259422779083252,10.920842170715332,9.714859962463379,139310094968001,-1.4098769426345825,0.018936822190880775,-3.515071392059326
9,82,139310099509810,-3.8979079723358154,10.39501953125,2.297109842300415,139310104054000,-1.392925500869751,-0.14324790239334106,-2.850297212600708
9,82,139310108594222,-3.3020951747894287,9.279964447021484,0.40737804770469666,139310113137436,-0.950506329536438,-0.7218900322914124,-2.082134246826172
9,82,139310117679184,-1.953141450881958,13.564911842346191,1.2646067142486572,139310122221787,-0.33292156457901,-0.9622654914855957,-1.561829686164856
9,82,139310126762680,0.23688943684101105,14.654244422912598,-5.309673309326172,139310131305893,0.351400226354599,-1.5836681127548218,-1.1983648538589478
9,82,139310135847397,0.771087110042572,14.834901809692383,-1.8131613731384277,139310140390916,1.1217013597488403,-1.521359920501709,-0.8151996731758118
9,82,139310144931931,2.403590440750122,14.048859596252441,-3.2105698585510254,139310149475572,1.6006196737289429,-1.1407908201217651,-0.4537201523780823
9,82,139310154017198,3.7393836975097656,12.335000991821289,-5.535196781158447,139310158559373,1.7464637756347656,-0.8286387324333191,-0.07635815441608429
9,82,139310163100999,4.420739650726318,11.469995498657227,-5.9509501457214355,139310167643786,1.6537649631500244,-0.3998112976551056,0.3271183371543884
9,82,139310172185655,4.222733974456787,12.023933410644531,-5.371886730194092,139310176729662,1.440267562866211,0.1595885455608368,0.7469354867935181
9,82,139310181269762,3.342175006866455,12.55872917175293,-6.2638115882873535,139310185813158,1.0997101068496704,0.5404630303382874,1.0844385623931885
9,82,139310190354540,4.215555191040039,13.393824577331543,-7.640881061553955,139310194896838,0.6137668490409851,0.7635815739631653,1.135140299797058
9,82,139310199438159,4.67078971862793,15.203396797180176,-5.438885688781738,139310203981433,-0.7293730974197388,1.43751859664917,0.694248378276825
9,82,139310208523059,3.7459638118743896,17.67279052734375,-2.3431715965270996,139310213066516,-2.721251964569092,2.5557074546813965,-0.15714508295059204
9,82,139310217607715,1.1024930477142334,19.257436752319336,0.9804590940475464,139310222151051,-4.018118858337402,3.358995199203491,-0.8921687006950378
9,82,139310226692677,-1.7754744291305542,13.552947044372559,4.978865623474121,139310231235523,-3.816533327102661,4.057977676391602,-1.0922271013259888
9,82,139310235776234,-8.425128936767578,7.253243446350098,22.78804588317871,139310240319142,-1.6591099500656128,5.239238262176514,-0.3903428912162781
9,82,139310244860951,-13.022936820983887,3.157329559326172,16.281362533569336,139310249401784,0.6012440919876099,4.418846607208252,0.864679753780365
9,82,139310253932363,-8.094919204711914,2.706880569458008,-3.706482172012329,139310258488515,1.3089314699172974,1.6369661092758179,1.542281985282898
9,82,139310263030507,-4.204189300537109,4.222733974456787,-9.158528327941895,139310267576772,0.831234872341156,-0.9888381361961365,1.5790866613388062
9,82,139310272116446,-2.68534517288208,6.067600250244141,-6.021538257598877,139310276657034,0.09086620807647705,-2.62076473236084,1.269836187362671
9,82,139310281198965,-2.272583246231079,7.76889705657959,1.3100703954696655,139310285741324,-0.26740625500679016,-3.0500502586364746,0.8399397134780884
9,82,139310290282950,-2.1541385650634766,8.071588516235352,3.012563705444336,139310294826285,-0.418748140335083,-2.920393943786621,0.39965859055519104
9,82,139310299367057,-2.0063817501068115,7.940581798553467,2.0572292804718018,139310303905631,-0.5141957998275757,-2.640465021133423,-0.02367102913558483
9,82,139310308452384,-1.6223337650299072,7.624131202697754,1.7784653902053833,139310312994865,-0.4960225820541382,-2.216677188873291,-0.3972151279449463
9,82,139310317538017,-2.2193429470062256,6.9583282470703125,2.6943182945251465,139310322080863,-0.34513887763023376,-1.6465872526168823,-0.6026185750961304
9,82,139310326620720,-2.80977201461792,6.642475605010986,2.664407968521118,139310331164787,-0.08368854224681854,-1.0948232412338257,-0.7017314434051514
9,82,139310335705987,-2.700300455093384,6.57966423034668,2.4269204139709473,139310340248772,0.22876903414726257,-0.5894849896430969,-0.7773260474205017
9,82,139310344789360,-2.372483730316162,6.543771743774414,1.9621145725250244,139310349332573,0.5164865851402283,-0.11698069423437119,-0.8370380997657776
9,82,139310353862787,-1.944766640663147,6.4115681648254395,1.207179069519043,139310358412714,0.7026477456092834,0.34086281061172485,-0.8362745046615601
9,82,139310362962213,-1.667797327041626,6.57966423034668,0.24287149310112,139310367505365,0.7047857642173767,0.7692320346832275,-0.7370089292526245
9,82,139310372045892,-1.6869399547576904,7.466204643249512,-1.1461620330810547,139310376586480,0.45982882380485535,1.059698462486267,-0.5183191895484924
9,82,139310381127619,-2.132603168487549,8.806783676147461,-2.6315066814422607,139310385670527,0.022143865004181862,1.141401767730713,-0.18860463798046112
9,82,139310390212641,-1.6319050788879395,9.399007797241211,-2.5495524406433105,139310394756281,-0.4447098970413208,1.0697777271270752,0.22067506611347198
9,82,139310399296320,-1.083350419998169,10.092328071594238,-1.7826528549194336,139310403839533,-0.7730499505996704,0.8378016948699951,0.6760751008987427
9,82,139310408381893,-0.6538388133049011,10.828120231628418,-1.2873386144638062,139310412924556,-0.940121591091156,0.46181413531303406,1.1359039545059204
9,82,139310417465389,-0.0011964113218709826,11.597413063049316,-0.4061816334724426,139310422008175,-0.9440922141075134,0.010995574295520782,1.5383113622665405
9,82,139310426549495,1.155135154724121,12.358928680419922,0.2715853750705719,139310431093257,-0.8613200187683105,-0.4309654235839844,1.7733417749404907
9,82,139310435634152,2.1774685382843018,12.970294952392578,1.4775680303573608,139310440177365,-0.7619016766548157,-0.7828238010406494,1.8028160333633423
9,82,139310444720028,2.6805596351623535,12.987643241882324,1.949552297592163,139310449262448,-0.7160868048667908,-0.9770789742469788,1.6826282739639282
9,82,139310453803402,3.1860432624816895,12.483953475952148,3.150151014328003,139310458346432,-0.7625125646591187,-0.5380195379257202,1.4802792072296143
9,82,139310462888120,3.7603209018707275,11.659028053283691,5.72422981262207,139310467432188,-1.028544306755066,1.2260065078735352,1.2246321439743042
9,82,139310471971372,4.06839656829834,10.633105278015137,2.7020950317382812,139310476511655,-1.1032226085662842,1.7458528280258179,1.0204503536224365
9,82,139310481057310,4.351347923278809,9.88415241241455,2.18045973777771,139310485599668,-0.9248499870300293,1.399950385093689,0.8460483551025391
9,82,139310490141540,3.9433717727661133,8.797212600708008,2.417349100112915,139310494683776,-0.5320636034011841,0.47800204157829285,0.694248378276825
9,82,139310499225402,2.9802606105804443,7.980661869049072,3.047259569168091,139310503769164,-0.21212296187877655,-0.34345898032188416,0.5969680547714233
9,82,139310508310057,2.301297187805176,8.113463401794434,3.7058839797973633,139310512853392,-0.08521570265293121,-0.6786713004112244,0.5157229900360107
9,82,139310517395752,1.9046868085861206,8.900702476501465,3.989433526992798,139310521937927,-0.1033889427781105,-0.6033821702003479,0.41401392221450806
9,82,139310526478881,1.7934205532073975,9.619147300720215,3.7986059188842773,139310531022095,-0.18555031716823578,-0.33918291330337524,0.28420504927635193
9,82,139310535563476,1.719243049621582,10.036694526672363,3.1232316493988037,139310540107910,-0.2854267954826355,-0.07147123664617538,0.14248432219028473
9,82,139310544647584,1.5876377820968628,10.287940979003906,2.5567309856414795,139310549191285,-0.36880987882614136,0.1235474944114685,0.019089538604021072
9,82,139310553733399,1.412961721420288,10.435697555541992,2.066202402114868,139310558275941,-0.4407392740249634,0.23029619455337524,-0.056810468435287476
9,82,139310562816895,1.2287144660949707,10.592427253723145,1.7186448574066162,139310567359559,-0.512210488319397,0.2620611786842346,-0.08399397134780884
9,82,139310571901247,1.0869396924972534,10.759326934814453,1.542174220085144,139310576444216,-0.5975789427757263,0.24892759323120117,-0.06780604273080826
9,82,139310580985292,0.9678967595100403,10.865209579467773,1.7461622953414917,139310585528810,-0.6944010853767395,0.2519819140434265,-0.020922135561704636
9,82,139310590071291,0.877567708492279,10.89990520477295,2.3784656524658203,139310594613284,-0.7681630253791809,0.31902438402175903,0.038637228310108185
9,82,139310599154361,0.753140926361084,10.807183265686035,3.16749906539917,139310603697513,-0.7866417169570923,0.4437935948371887,0.09911288321018219
9,82,139310608239627,0.5850451588630676,10.533803939819336,3.8799619674682617,139310612783755,-0.7464773058891296,0.5618433356285095,0.166460782289505
9,82,139310617323428,0.40737804770469666,10.054640769958496,4.2693939208984375,139310621866581,-0.6725626587867737,0.6015495657920837,0.25732699036598206
9,82,139310626408268,0.35832518339157104,9.550951957702637,4.2795634269714355,139310630950870,-0.5879577994346619,0.503963828086853,0.36911532282829285
9,82,139310635492252,0.5042873620986938,9.179466247558594,4.289732933044434,139310640035404,-0.5096143484115601,0.30833423137664795,0.4740314185619354
9,82,139310644576603,0.8123632669448853,9.049654960632324,4.3998026847839355,139310649119695,-0.45433104038238525,0.11591167747974396,0.5410739183425903
9,82,139310653661321,1.164108157157898,9.110074043273926,4.576871395111084,139310658204533,-0.4173736870288849,0.016493361443281174,0.5551238059997559
9,82,139310662746404,1.4015958309173584,9.204590797424316,4.824528694152832,139310667288823,-0.365755558013916,0.042760565876960754,0.5314527750015259
9,82,139310671830327,1.472184181213379,9.147761344909668,4.9531426429748535,139310676373175,-0.304669052362442,0.19547687470912933,0.498924195766449
9,82,139310680915045,1.5194423198699951,8.918647766113281,4.730011940002441,139310685458746,-0.252287358045578,0.40072759985923767,0.4948008358478546
9,82,139310689999273,1.4709876775741577,8.60877799987793,4.211966037750244,139310694542486,-0.2142609804868698,0.5719226002693176,0.5451972484588623
9,82,139310699084540,1.5744773149490356,8.226524353027344,3.6945180892944336,139310703626899,-0.20341812074184418,0.694248378276825,0.6444628238677979
9,82,139310708168036,1.7832510471343994,7.9728851318359375,3.428914785385132,139310712711005,-0.21334469318389893,0.7683157324790955,0.7695375084877014
9,82,139310717251777,2.0584256649017334,7.843074321746826,3.4821550846099854,139310721795112,-0.2255619913339615,0.8197811841964722,0.9014843702316284
9,82,139310726336616,2.376072883605957,7.875377655029297,3.7543387413024902,139310730880501,-0.23273965716362,0.8813258409500122,1.0070114135742188
9,82,139310735422493,2.68953275680542,7.95553731918335,4.106681823730469,139310739964607,-0.2168571650981903,0.9654725193977356,1.065043568611145
9,82,139310744505562,3.0269205570220947,7.978867053985596,4.597808837890625,139310749048592,-0.1719585657119751,1.0740537643432617,1.0731375217437744
9,82,139310753590523,3.3026933670043945,8.058428764343262,4.650450706481934,139310758134347,-0.1270599663257599,1.190729022026062,1.0314459800720215
9,82,139310762674813,3.284747362136841,8.276773452758789,4.237090587615967,139310767217965,-0.1036943718791008,1.2736539840698242,0.9531024694442749
9,82,139310771756539,3.057429075241089,8.45324420928955,4.026522159576416,139310776288766,-0.07910704612731934,1.3364204168319702,0.8597928285598755
9,82,139310780841561,2.730210542678833,8.511270523071289,3.707080364227295,139310785386545,-0.06169738993048668,1.3700180053710938,0.773202657699585
9,82,139310789931467,2.4358935356140137,8.58784008026123,3.3020951747894287,139310794471628,-0.059406645596027374,1.3529138565063477,0.6913467645645142
9,82,139310799012217,2.1278176307678223,8.702695846557617,3.0065815448760986,139310803555308,-0.07040221989154816,1.2945761680603027,0.6207917928695679
9,82,139310808095652,1.8388842344284058,8.808578491210938,2.8342983722686768,139310812639964,-0.09605856239795685,1.2185235023498535,0.5517640113830566
9,82,139310817181346,1.5302101373672485,8.914461135864258,2.785843849182129,139310821724620,-0.12751811742782593,1.1328495740890503,0.4824308156967163
9,82,139310826265941,1.1599208116531372,8.93539810180664,2.851048231124878,139310830809947,-0.15592335164546967,1.053742527961731,0.42348232865333557
9,82,139310835349864,0.7411768436431885,8.823533058166504,2.9832515716552734,139310839893627,-0.18631389737129211,0.9984592199325562,0.38148534297943115
9,82,139310844435559,0.48873403668403625,8.587242126464844,3.0723843574523926,139310848978222,-0.20799961686134338,0.95462965965271,0.33857205510139465
9,82,139310853519665,0.4504488706588745,8.496912956237793,3.1202406883239746,139310858062512,-0.21090123057365417,0.894001305103302,0.2788599729537964
9,82,139310862603771,0.5066801905632019,8.291728973388672,3.0113673210144043,139310867146802,-0.2093740701675415,0.8051204085350037,0.2099849283695221
9,82,139310871687696,0.5533402562141418,8.025527000427246,2.94975209236145,139310876231702,-0.2073887437582016,0.6957755088806152,0.14508049190044403
9,82,139310880773633,0.6239284873008728,7.906484127044678,3.040081262588501,139310885315748,-0.2050980031490326,0.6056728959083557,0.08124507963657379
9,82,139310889856885,0.7190431952476501,7.89631462097168,3.040679454803467,139310894399916,-0.204487144947052,0.5248859524726868,0.019089538604021072
9,82,139310898942030,0.7806583642959595,7.871788501739502,2.9551360607147217,139310903485976,-0.20387627184391022,0.44318273663520813,-0.03176499158143997
9,82,139310908025404,0.8428717851638794,7.8765740394592285,2.9312076568603516,139310912569228,-0.20066922903060913,0.3527746796607971,-0.07742717117071152
9,82,139310917110794,0.8811569213867188,7.952546119689941,2.9838497638702393,139310921653884,-0.19715675711631775,0.26343563199043274,-0.11392636597156525
9,82,139310926194534,0.9667003750801086,8.047660827636719,3.0933215618133545,139310930737503,-0.18967366218566895,0.17669276893138885,-0.14355333149433136
9,82,139310935278762,1.0432707071304321,8.204390525817871,3.245863914489746,139310939820815,-0.17516560852527618,0.09926560521125793,-0.16554448008537292
9,82,139310944356827,1.1341979503631592,8.432307243347168,3.3649067878723145,139310948904373,-0.16019940376281738,0.039248090237379074,-0.18616119027137756
9,82,139310953436234,1.1682956218719482,8.670392990112305,3.492922782897949,139310957992875,-0.14813482761383057,0.006108652334660292,-0.19837848842144012
9,82,139310962532120,1.2448660135269165,8.903095245361328,3.6263227462768555,139310967078690,-0.13225232064723969,-0.014508049935102463,-0.2047925740480423
9,82,139310971617509,1.2496516704559326,9.074779510498047,3.840480327606201,139310976161455,-0.10277807712554932,-0.04398229718208313,-0.19914206862449646
9,82,139310980701372,1.2502498626708984,9.275178909301758,4.1347975730896,139310985244523,-0.0708603709936142,-0.09010262042284012,-0.1875356286764145
9,82,139310989786333,1.308275818824768,9.641879081726074,4.4721856117248535,139310994329057,-0.05360342562198639,-0.1408044397830963,-0.1820378452539444
9,82,139310998870135,1.3334003686904907,10.137192726135254,4.876572608947754,139311003413104,-0.05467243865132332,-0.1950187236070633,-0.19624045491218567
9,82,139311007954669,1.2867404222488403,10.542776107788086,5.346762180328369,139311012498309,-0.0659734457731247,-0.2554943859577179,-0.2151772826910019
9,82,139311017039202,1.215553879737854,10.587043762207031,5.907280921936035,139311021583086,-0.0705549344420433,-0.31459560990333557,-0.22082778811454773
9,82,139311026124653,1.2711870670318604,10.406984329223633,6.497111797332764,139311030666706,-0.07498370856046677,-0.3500257730484009,-0.19914206862449646
9,82,139311035207721,1.5978072881698608,10.135398864746094,6.836294174194336,139311039751179,-0.0884227454662323,-0.38087448477745056,-0.1569923609495163
9,82,139311044292865,2.0673987865448,9.881160736083984,6.780661106109619,139311048837238,-0.11453723162412643,-0.4346306324005127,-0.0936150997877121
9,82,139311053377034,2.4131617546081543,9.650253295898438,6.510870456695557,139311057921040,-0.13759739696979523,-0.5077817440032959,-0.00809396430850029
9,82,139311062462605,2.626721143722534,9.477372169494629,6.269195556640625,139311067004964,-0.15347988903522491,-0.5729916095733643,0.09300423413515091
9,82,139311071546101,2.7355945110321045,9.405587196350098,6.1603217124938965,139311076089070,-0.13836097717285156,-0.6278167366981506,0.1918116807937622
9,82,139311080630514,2.630908489227295,9.259027481079102,6.245266914367676,139311085173239,-0.058948494493961334,-0.6805039048194885,0.27550023794174194
9,82,139311089714559,2.4257240295410156,9.08853816986084,6.358926296234131,139311094258321,0.10354165732860565,-0.775340735912323,0.3072652220726013
9,82,139311098797994,2.2199411392211914,8.623732566833496,6.463014125823975,139311103332113,0.33796119689941406,-0.926224410533905,0.27977627515792847
9,82,139311107883872,1.954936146736145,7.70249605178833,6.5868425369262695,139311112426963,0.6003278493881226,-1.0684033632278442,0.22907446324825287
9,82,139311116971152,1.843071699142456,6.770491600036621,6.2398834228515625,139311121512412,0.7759515643119812,-1.0554224252700806,0.16310101747512817
9,82,139311126052390,1.781456470489502,6.415157318115234,4.642076015472412,139311130595969,0.790154218673706,-0.8602510094642639,0.07528914511203766
9,82,139311135138023,1.6755740642547607,6.973283290863037,2.9347970485687256,139311139680504,0.7333437204360962,-0.564592182636261,-0.0754418596625328
9,82,139311144222190,2.072782516479492,8.967103004455566,1.7742780447006226,139311148765281,0.697760820388794,-0.2926044464111328,-0.35964691638946533
9,82,139311153306358,2.895913600921631,11.839088439941406,1.057029366493225,139311157849510,0.7790058851242065,-0.16065755486488342,-0.7687739133834839
9,82,139311162389733,3.108276605606079,14.020146369934082,0.7902296781539917,139311166931237,1.0523680448532104,-0.2246456891298294,-1.1914926767349243
9,82,139311171466332,2.6225335597991943,15.039488792419434,0.46002015471458435,139311176018639,1.3608551025390625,-0.4356996417045593,-1.486387848854065
9,82,139311180559167,1.673181176185608,15.010176658630371,0.005383851006627083,139311185104760,1.4272866249084473,-0.622013509273529,-1.5328136682510376
9,82,139311189644251,0.31046873331069946,13.837095260620117,0.10648060590028763,139311194188257,1.2391401529312134,-0.6270532011985779,-1.3197743892669678
9,82,139311198727991,-0.7836494445800781,12.178271293640137,0.29431718587875366,139311203271570,1.0073168277740479,-0.5097670555114746,-1.024726390838623
9,82,139311207813990,-1.3160524368286133,10.644471168518066,0.1657029688358307,139311212356287,0.8637634515762329,-0.4121813178062439,-0.8263479471206665
9,82,139311216897365,-1.3680963516235352,9.235098838806152,-0.6137589812278748,139311221440212,0.8142833709716797,-0.47051894664764404,-0.7987062931060791
9,82,139311225981227,-1.26699960231781,8.082356452941895,-1.3351950645446777,139311230525111,0.845132052898407,-0.6879869699478149,-0.902247965335846
9,82,139311235065822,-1.287936806678772,7.382455825805664,-1.6109678745269775,139311239609463,0.9277516007423401,-0.9534079432487488,-1.0477865934371948
9,82,139311244151272,-1.3884353637695312,7.250252723693848,-1.4775680303573608,139311248693691,1.0195341110229492,-1.1749993562698364,-1.1733194589614868
9,82,139311253235195,-1.4781662225723267,7.369893550872803,-1.207179069519043,139311257778042,1.1049025058746338,-1.3000739812850952,-1.2470813989639282
9,82,139311262319363,-1.534995675086975,7.509275436401367,-0.8602197170257568,139311266863492,1.197295904159546,-1.3193162679672241,-1.2391401529312134
9,82,139311271403775,-1.5439687967300415,7.733603000640869,-0.4420739710330963,139311275947476,1.3341296911239624,-1.2417362928390503,-1.1349875926971436
9,82,139311280489469,-1.3621143102645874,8.26121997833252,-0.23748764395713806,139311285031339,1.4952454566955566,-1.129184365272522,-0.9532552361488342
9,82,139311289573026,-1.0450652837753296,9.176474571228027,-0.5461617708206177,139311294115996,1.6215417385101318,-1.0601565837860107,-0.7289149761199951
9,82,139311298648344,-0.5994020700454712,10.229914665222168,-0.9397810697555542,139311303203154,1.6450600624084473,-1.058171272277832,-0.4990769028663635
9,82,139311307744719,-0.2356930375099182,10.855039596557617,-1.3196417093276978,139311312288359,1.508837103843689,-1.0601565837860107,-0.23380866646766663
9,82,139311316827055,0.049651071429252625,10.962717056274414,-1.2855439186096191,139311321369659,1.23394775390625,-1.0123564004898071,0.09040805697441101
9,82,139311325910186,0.42352959513664246,10.757532119750977,-0.8087740540504456,139311330453887,0.9088147878646851,-0.8715519905090332,0.42668938636779785
9,82,139311334995025,1.1258230209350586,10.6564359664917,0.16809579730033875,139311339539214,0.6476698517799377,-0.6207917928695679,0.6739370822906494
9,82,139311344079498,1.9232312440872192,10.806585311889648,1.0785647630691528,139311348622955,0.5361869931221008,-0.3225368559360504,0.759916365146637
9,82,139311353165131,2.569293260574341,10.899307250976562,1.475175142288208,139311357707245,0.5849034786224365,-0.07742717117071152,0.6928738951683044
9,82,139311362248383,2.9204399585723877,10.749755859375,1.0582258701324463,139311366791474,0.7464773058891296,0.02122756652534008,0.5175555944442749
9,82,139311371332917,2.971287488937378,10.24487018585205,0.9206385016441345,139311375875825,0.9511171579360962,0.04948008432984352,0.31261029839515686
9,82,139311380417451,2.8456642627716064,9.57487964630127,0.8207381963729858,139311384960786,1.1308642625808716,0.07895433157682419,0.12110403180122375
9,82,139311389503267,2.7110681533813477,9.084949493408203,0.5593222975730896,139311394044954,1.2527319192886353,0.10430523753166199,-0.04489859566092491
9,82,139311398586579,2.486740827560425,8.676374435424805,0.13100704550743103,139311403129672,1.3070988655090332,0.12370020896196365,-0.1745547503232956
9,82,139311407671602,2.200798511505127,8.34855842590332,-0.12681959569454193,139311412215487,1.3014483451843262,0.1589776873588562,-0.2669481039047241
9,82,139311416754855,1.9244276285171509,8.059624671936035,-0.28893333673477173,139311421298739,1.2435688972473145,0.21181751787662506,-0.33200526237487793
9,82,139311425840304,1.5625132322311401,7.784450054168701,-0.6699903607368469,139311430383334,1.1357512474060059,0.24633140861988068,-0.37888917326927185
9,82,139311434923862,1.196411371231079,7.557132244110107,-1.1419745683670044,139311439467258,1.0004445314407349,0.23136521875858307,-0.4161519408226013
9,82,139311444008151,0.8781659007072449,7.476972579956055,-1.5092729330062866,139311448551486,0.8645270466804504,0.1547016203403473,-0.44455718994140625
9,82,139311453092502,0.5790630578994751,7.449455261230469,-1.8711873292922974,139311457636631,0.7481572031974792,0.012980886735022068,-0.4544837474822998
9,82,139311462178807,0.28953152894973755,7.378866672515869,-2.1619153022766113,139311466720738,0.6577491760253906,-0.18524488806724548,-0.4317290186882019
9,82,139311471261448,-0.02871387079358101,7.280162811279297,-2.2917258739471436,139311475804539,0.5991060733795166,-0.4086688458919525,-0.36132678389549255
9,82,139311480346165,-0.34277185797691345,7.172485828399658,-2.0781664848327637,139311484887304,0.570853590965271,-0.6041457056999207,-0.24434609711170197
9,82,139311489418004,-0.5335994362831116,7.093522548675537,-1.7413766384124756,139311493974340,0.5583308339118958,-0.7437284588813782,-0.0936150997877121
9,82,139311498516332,-0.5527420043945312,7.098906517028809,-1.31365966796875,139311503061254,0.5496259927749634,-0.816421389579773,0.06505715101957321
9,82,139311507599340,-0.35832518339157104,7.261020183563232,-0.7567301392555237,139311512142249,0.5328271985054016,-0.8294022679328918,0.19196440279483795
9,82,139311516684180,0.02273181453347206,7.540382385253906,-0.503689169883728,139311521227271,0.4801400899887085,-0.8371908068656921,0.2562579810619354
9,82,139311525768225,0.5611169338226318,8.109275817871094,-0.25004997849464417,139311530312231,0.3804163336753845,-0.860556423664093,0.2246456891298294
9,82,139311534853735,0.9146564602851868,8.683553695678711,0.0975075215101242,139311539392921,0.24633140861988068,-0.8982773423194885,0.11591167747974396
9,82,139311543924598,1.0103694200515747,9.097511291503906,0.43968117237091064,139311548480812,0.12965615093708038,-0.9508117437362671,-0.027641652151942253
9,82,139311553022315,0.9966106414794922,9.336195945739746,0.8105686902999878,139311557569496,0.07712173461914062,-1.020603060722351,-0.15454891324043274
9,82,139311562106544,0.9493523836135864,9.45583724975586,1.1904292106628418,139311566649514,0.10308351367712021,-1.0948232412338257,-0.22647829353809357
9,82,139311571191933,1.0450652837753296,9.632308006286621,1.3908281326293945,139311575734109,0.19318613409996033,-1.178359031677246,-0.24068090319633484
9,82,139311580275551,1.2167502641677856,9.811769485473633,1.4003994464874268,139311584818337,0.3081815242767334,-1.2767083644866943,-0.19715675711631775
9,82,139311589360086,1.540379524230957,10.080962181091309,1.2442678213119507,139311593903726,0.408363401889801,-1.3900238275527954,-0.11621711403131485
9,82,139311598443826,1.8699909448623657,10.464411735534668,1.1120643615722656,139311602987527,0.4660901725292206,-1.4989105463027954,-0.016951510682702065
9,82,139311607529398,2.1613171100616455,10.862218856811523,0.9888339638710022,139311612072122,0.46929723024368286,-1.5954272747039795,0.08964447677135468
9,82,139311616613139,2.3952155113220215,11.298908233642578,0.9655039310455322,139311621156291,0.4173736870288849,-1.6534595489501953,0.19257527589797974
9,82,139311625697733,2.65842604637146,11.749955177307129,1.089930772781372,139311630241618,0.3243694305419922,-1.6386460065841675,0.275958389043808
9,82,139311634781535,2.815753936767578,12.020344734191895,1.2329018115997314,139311639325907,0.2025018334388733,-1.5386168956756592,0.34177911281585693
9,82,139311643868023,2.782254457473755,12.07777214050293,1.4039887189865112,139311648410015,0.07742717117071152,-1.350012183189392,0.40072759985923767
9,82,139311652950603,2.7014968395233154,12.045469284057617,1.5936198234558105,139311657493450,-0.04001167416572571,-1.0975720882415771,0.4599815309047699
9,82,139311662035076,2.5154547691345215,11.85583782196045,1.4177473783493042,139311666578350,-0.15286903083324432,-0.826500654220581,0.5241223573684692
9,82,139311671119427,2.65842604637146,11.907283782958984,1.4416756629943848,139311675663312,-0.2174680233001709,-0.551916778087616,0.5820018649101257
9,82,139311680205853,2.7391836643218994,11.95454216003418,1.4273186922073364,139311684747540,-0.23686300218105316,-0.26969701051712036,0.6572909951210022
9,82,139311689289166,2.6973092555999756,12.144172668457031,1.1324033737182617,139311693831708,-0.2503020465373993,0.0025961773935705423,0.7538077235221863
9,82,139311698373579,2.7038896083831787,12.44267749786377,0.4049852192401886,139311702917280,-0.2874121069908142,0.2499966025352478,0.8510879874229431
9,82,139311707457991,2.820539712905884,13.063614845275879,-0.10887342691421509,139311712001020,-0.34574973583221436,0.48319441080093384,0.9214902520179749
9,82,139311716543013,2.6697919368743896,13.315460205078125,-0.7561319470405579,139311721085066,-0.4378376603126526,0.6934847831726074,0.970054030418396
9,82,139311725626326,2.637488842010498,13.466207504272461,-1.3692927360534668,139311730169662,-0.5363397002220154,0.8741481900215149,0.9708175659179688
9,82,139311734710982,2.390429735183716,13.261621475219727,-2.1260228157043457,139311739254317,-0.6467535495758057,1.000749945640564,0.915534257888794
9,82,139311743795699,1.9381862878799438,12.753146171569824,-2.806781053543091,139311748339217,-0.7812966704368591,1.0621418952941895,0.827111542224884
9,82,139311752881149,1.2574282884597778,12.122637748718262,-3.384049415588379,139311757423141,-0.9460775256156921,1.0728321075439453,0.7318165898323059
9,82,139311761964584,0.6245267391204834,11.810972213745117,-3.7471601963043213,139311766504501,-1.111163854598999,1.0167851448059082,0.6204863786697388
9,82,139311771037887,-0.040677983313798904,11.661420822143555,-4.182055950164795,139311775592941,-1.2356276512145996,0.8526151776313782,0.48747047781944275
9,82,139311780133042,-0.6526423692703247,11.648859024047852,-4.645066738128662,139311784679429,-1.2962560653686523,0.5534439086914062,0.3286454975605011
9,82,139311789218858,-1.212562918663025,11.840883255004883,-5.07936429977417,139311793761216,-1.314734697341919,0.13775011897087097,0.13072516024112701
9,82,139311798301805,-1.7288143634796143,12.132806777954102,-5.395216941833496,139311802844774,-1.3208433389663696,-0.3335324227809906,-0.09865473955869675
9,82,139311807385912,-2.231905221939087,12.230315208435059,-5.415555953979492,139311811929735,-1.3536773920059204,-0.8014551997184753,-0.31780263781547546
9,82,139311816470690,-2.723032236099243,11.833703994750977,-5.212165832519531,139311821014330,-1.4640913009643555,-1.2087496519088745,-0.45326200127601624
9,82,139311825556383,-3.115455150604248,10.989636421203613,-4.804189682006836,139311830098497,-1.6878206729888916,-1.506240963935852,-0.46471574902534485
9,82,139311834640063,-3.2243285179138184,10.083952903747559,-3.7196428775787354,139311839179980,-1.9843957424163818,-1.596496343612671,-0.3701843321323395
9,82,139311843711963,-2.9958138465881348,9.215357780456543,-2.373081922531128,139311848268420,-2.305558204650879,-1.4819591045379639,-0.21609358489513397
9,82,139311852809070,-2.4580271244049072,8.478368759155273,-1.0683952569961548,139311857355517,-2.6065618991851807,-1.1933252811431885,-0.03588833287358284
9,82,139311861894093,-1.8340985774993896,7.835896015167236,-0.005383851006627083,139311866436146,-2.841439723968506,-0.7965682744979858,0.15821409225463867
9,82,139311870977284,-1.2191431522369385,7.2681989669799805,0.7716853022575378,139311875517140,-2.9683468341827393,-0.3605632185935974,0.3663664162158966
9,82,139311880048695,-0.6658028960227966,6.711269378662109,1.6863417625427246,139311884605640,-2.9463558197021484,0.11621711403131485,0.5928447246551514
9,82,139311889146901,-0.2267199456691742,6.159125328063965,2.6153552532196045,139311893693837,-2.8044822216033936,0.6094908118247986,0.8523097038269043
9,82,139311898231923,0.19920247793197632,5.91505765914917,2.7930221557617188,139311902774160,-2.618321180343628,1.0444267988204956,1.122159481048584
9,82,139311907315480,0.6927221417427063,5.7409796714782715,2.6805596351623535,139311911858939,-2.4448354244232178,1.3530665636062622,1.3622294664382935
9,82,139311916400259,1.23589289188385,6.032305717468262,2.173281192779541,139311920944327,-2.3235785961151123,1.4595097303390503,1.5105170011520386
9,82,139311925484122,1.7832510471343994,6.171687602996826,1.689931035041809,139311930028067,-2.2456934452056885,1.3739886283874512,1.5386168956756592
9,82,139311934569388,2.1822543144226074,6.206982135772705,1.415354609489441,139311939112418,-2.166128158569336,1.1782063245773315,1.4688254594802856
9,82,139311943653373,2.434098720550537,6.211169242858887,1.7012969255447388,139311948196586,-2.035250186920166,0.9764680862426758,1.3374894857406616
9,82,139311952737480,2.637488842010498,6.178267955780029,2.2959132194519043,139311957280814,-1.8365663290023804,0.8313875794410706,1.1684324741363525
9,82,139311961822196,2.84087872505188,6.116652965545654,3.014956474304199,139311966365532,-1.5331190824508667,0.7029531598091125,0.974177360534668
9,82,139311970907646,3.105883836746216,6.046064376831055,3.971487283706665,139311975450188,-1.1035280227661133,0.5378668308258057,0.7522805333137512
9,82,139311979991082,3.166900873184204,5.947360515594482,4.713262557983398,139311984534173,-0.6200281977653503,0.3778201639652252,0.5177083015441895
9,82,139311989075493,2.943171739578247,5.915655612945557,4.95493745803833,139311993620111,-0.18616119027137756,0.2900082767009735,0.289244681596756
9,82,139311998159662,2.3030917644500732,6.060421466827393,4.2825541496276855,139312002703485,0.11988230794668198,0.2396118938922882,0.10247264802455902
9,82,139312007245111,1.7114664316177368,6.427121639251709,3.2584261894226074,139312011787958,0.3000875413417816,0.18188512325286865,-0.04337143152952194
9,82,139312016328912,1.342971682548523,6.798008918762207,2.4532413482666016,139312020871821,0.39904773235321045,0.1007927656173706,-0.15790866315364838
9,82,139312025413142,1.124626636505127,6.865008354187012,2.115255117416382,139312029956843,0.44089198112487793,0.02275473065674305,-0.2376265823841095
9,82,139312034497797,0.9667003750801086,6.5904316902160645,2.3575284481048584,139312039041071,0.45692721009254456,-0.002138028386980295,-0.2765692472457886
9,82,139312043583064,0.7172485589981079,6.031707763671875,2.974876642227173,139312048125850,0.4560109078884125,0.06062837690114975,-0.2565633952617645
9,82,139312052667049,0.6915257573127747,5.633901119232178,3.769293785095215,139312057209530,0.47311514616012573,0.18341228365898132,-0.19776763021945953
9,82,139312061751277,0.8901300430297852,5.5345988273620605,4.416552543640137,139312066295650,0.5175555944442749,0.3237585723400116,-0.1258382350206375
9,82,139312070835811,1.1330015659332275,5.724828243255615,4.840082168579102,139312075379330,0.578489363193512,0.461355984210968,-0.04535674303770065
9,82,139312079921139,1.4057832956314087,6.34217643737793,5.059623718261719,139312084463437,0.6223189830780029,0.5899431109428406,0.04138612002134323
9,82,139312089004757,1.765903115272522,7.515257835388184,5.107480049133301,139312093547787,0.5830708742141724,0.7344127297401428,0.12828169763088226
9,82,139312098088986,2.2331018447875977,9.377471923828125,5.1840500831604,139312102632566,0.42638394236564636,0.9075930118560791,0.20815233886241913
9,82,139312107173399,2.7589244842529297,11.681161880493164,5.01296329498291,139312111717100,0.15653422474861145,1.0542006492614746,0.2646573781967163
9,82,139312116259641,3.2955150604248047,14.22293758392334,4.889134883880615,139312120800962,-0.1385136991739273,1.0277807712554932,0.26801711320877075
9,82,139312125342649,3.5306098461151123,16.26162338256836,4.603790760040283,139312129885375,-0.4251621961593628,0.6939429044723511,0.2370157092809677
9,82,139312134426878,3.239881753921509,17.299509048461914,4.464408874511719,139312138971495,-0.6795876026153564,0.03894266113638878,0.24602597951889038
9,82,139312143511290,2.4574289321899414,16.581663131713867,5.189434051513672,139312148055052,-0.8339837789535522,-0.7463245987892151,0.33078351616859436
9,82,139312152596312,1.8406788110733032,14.371891021728516,6.881757736206055,139312157138733,-0.7486153841018677,-1.4046846628189087,0.4167627990245819
9,82,139312161680175,1.3968101739883423,11.610573768615723,8.979066848754883,139312166223144,-0.36682456731796265,-1.7528778314590454,0.43615779280662537
9,82,139312170764465,1.1629117727279663,8.778668403625488,9.93559741973877,139312175307556,0.14446963369846344,-1.6752979755401611,0.3341432809829712
9,82,139312179848694,1.153340458869934,7.058228492736816,8.239086151123047,139312184392640,0.4940372705459595,-1.2229522466659546,0.0809396430850029
9,82,139312188934449,1.3381860256195068,7.392027378082275,4.5308098793029785,139312193476868,0.5618433356285095,-0.7344127297401428,-0.35964691638946533
9,82,139312198017701,1.989033818244934,9.68794059753418,2.9718856811523438,139312202561341,0.5502368807792664,-0.3147483170032501,-0.9135489463806152
9,82,139312207102662,2.864806890487671,12.726226806640625,2.3976082801818848,139312211647157,0.7136433124542236,-0.11728613078594208,-1.4526375532150269
9,82,139312216186952,2.895315408706665,14.612967491149902,1.7736797332763672,139312220730287,1.0181596279144287,-0.14278975129127502,-1.8582520484924316
9,82,139312225272036,2.2857437133789062,15.351752281188965,1.0815558433532715,139312229814943,1.2747230529785156,-0.2825251817703247,-2.037693738937378
9,82,139312234355655,1.3070793151855469,15.016757011413574,0.15672987699508667,139312238898196,1.3477214574813843,-0.512210488319397,-1.857793927192688
9,82,139312243439944,0.030508488416671753,13.731810569763184,-0.9068797826766968,139312247983767,1.3310753107070923,-0.8636107444763184,-1.3078625202178955
9,82,139312252525088,-0.9678967595100403,12.0335054397583,-1.074975609779358,139312257068301,1.3935363292694092,-1.190729022026062,-0.5835290551185608
9,82,139312261610355,-1.2317054271697998,10.162318229675293,-0.42831525206565857,139312266152408,1.5221234560012817,-1.2693779468536377,0.08429940044879913
9,82,139312270694522,-0.7872386574745178,8.425726890563965,0.268594354391098,139312275238957,1.6032158136367798,-1.0514518022537231,0.5592471361160278
9,82,139312279778141,-0.1453639715909958,7.295716285705566,0.5084748268127441,139312284322269,1.5685492753982544,-0.6449210047721863,0.7793113589286804
9,82,139312288862066,0.42831525206565857,6.99840784072876,0.49651068449020386,139312293406438,1.4564554691314697,-0.14446963369846344,0.7759515643119812
9,82,139312297948125,0.9038887619972229,7.05763053894043,0.35533416271209717,139312302490483,1.3578007221221924,0.3640756905078888,0.6334672570228577
9,82,139312307030644,1.2370892763137817,7.183253765106201,-0.024526432156562805,139312311571904,1.3336715698242188,0.7980954647064209,0.4502076804637909
9,82,139312316115484,1.41834557056427,7.323832035064697,-0.646660327911377,139312320659124,1.3965907096862793,1.1122329235076904,0.27488934993743896
9,82,139312325200445,1.638485312461853,7.558926582336426,-1.5260226726531982,139312329744634,1.5170838832855225,1.2567025423049927,0.0936150997877121
9,82,139312334276861,1.820937991142273,7.82692289352417,-2.523829698562622,139312338831122,1.6467399597167969,1.224173903465271,-0.09697485715150833
9,82,139312343372199,1.8987047672271729,8.039285659790039,-3.355933666229248,139312347912910,1.7486017942428589,1.061989188194275,-0.28267788887023926
9,82,139312352454108,1.8424733877182007,8.157132148742676,-3.9074792861938477,139312356997931,1.8058704137802124,0.827722430229187,-0.437226802110672
9,82,139312361539008,1.6576279401779175,8.271389961242676,-4.298107624053955,139312366081611,1.8061758279800415,0.5632177591323853,-0.5349652171134949
9,82,139312370623604,1.3208380937576294,8.249256134033203,-4.399204254150391,139312375165779,1.6963727474212646,0.3199406862258911,-0.5250386595726013
9,82,139312379707100,0.8536394834518433,7.775477409362793,-4.576273441314697,139312384247688,1.2849550247192383,0.12950342893600464,-0.3318525552749634
9,82,139312388779121,0.6765705943107605,7.414759159088135,-4.529015064239502,139312393322151,0.5633704662322998,-0.01771509274840355,-0.03145955875515938
9,82,139312397876229,0.8434699773788452,7.724629878997803,-3.8865420818328857,139312402421517,-0.19486601650714874,-0.19562959671020508,0.2054034322500229
9,82,139312406964425,1.134796142578125,8.634500503540039,-2.4598217010498047,139312411506906,-0.7018841505050659,-0.4024074673652649,0.31261029839515686
9,82,139312416045541,1.293320655822754,9.368498802185059,-1.2191431522369385,139312420587899,-0.8831584453582764,-0.5879577994346619,0.34956762194633484
9,82,139312425129770,1.4452649354934692,9.708877563476562,0.5120640397071838,139312429673289,-0.746019184589386,-0.7101308703422546,0.361174076795578
9,82,139312434211802,1.5912270545959473,9.649057388305664,1.730010747909546,139312438757395,-0.3877467215061188,-0.7974845767021179,0.3599523603916168
9,82,139312443298899,1.6845471858978271,9.364909172058105,2.4670002460479736,139312447842295,0.08109235763549805,-0.8573493957519531,0.3376557528972626
9,82,139312452382274,1.7916259765625,8.998807907104492,2.9240293502807617,139312456925426,0.5650503635406494,-0.8729264140129089,0.29016098380088806
9,82,139312461467174,1.8287147283554077,8.703892707824707,2.7768707275390625,139312466010142,0.9630290865898132,-0.8538368940353394,0.22632557153701782
9,82,139312470548533,1.719243049621582,8.446065902709961,2.1062822341918945,139312475082469,1.1827877759933472,-0.8060367107391357,0.1690569519996643
9,82,139312479636730,1.5481562614440918,8.221738815307617,1.3692927360534668,139312484178784,1.2044734954833984,-0.7221954464912415,0.1391245573759079
9,82,139312488723584,1.5343974828720093,8.158329010009766,0.6323033571243286,139312493266552,1.0761919021606445,-0.6391177773475647,0.126143679022789
9,82,139312497795788,1.568495273590088,8.304888725280762,0.07118647545576096,139312502352368,0.8825475573539734,-0.5650503635406494,0.1082758679986
9,82,139312506892652,1.6510475873947144,8.622536659240723,-0.2189432680606842,139312511436048,0.7174612283706665,-0.5119050741195679,0.0685696229338646
9,82,139312515974073,1.703689694404602,8.797810554504395,-0.3332005441188812,139312520516736,0.6375905871391296,-0.48655417561531067,0.023518312722444534
9,82,139312525058057,1.7132610082626343,8.797810554504395,-0.251844584941864,139312529600965,0.6606507897377014,-0.4625777006149292,-0.011301007121801376
9,82,139312534142653,1.7078771591186523,8.665008544921875,-0.0568295381963253,139312538685561,0.7619016766548157,-0.41263946890830994,-0.032070424407720566
9,82,139312543227003,1.6785650253295898,8.508877754211426,0.06161518394947052,139312547770949,0.8793405294418335,-0.3237585723400116,-0.041233405470848083
9,82,139312552313063,1.5978072881698608,8.380263328552246,-0.02392822690308094,139312556854629,0.9440922141075134,-0.2025018334388733,-0.04612032696604729
9,82,139312561396011,1.6785650253295898,8.441280364990234,-0.15194423496723175,139312565938858,0.8912523984909058,-0.07987063378095627,-0.07177666574716568
9,82,139312570480605,1.828116536140442,8.934800148010254,-0.48454657196998596,139312575024734,0.683863639831543,-0.02367102913558483,-0.13087788224220276
9,82,139312579565017,2.011167526245117,9.713065147399902,-0.7938188910484314,139312584108597,0.36132678389549255,-0.08628471940755844,-0.22189679741859436
9,82,139312588650467,2.170290231704712,10.230513572692871,-0.8793623447418213,139312593192704,0.0403171069920063,-0.275347501039505,-0.3107776939868927
9,82,139312597733902,2.231307029724121,10.29332447052002,-0.3367897868156433,139312602276566,-0.13408492505550385,-0.5065600275993347,-0.3446807265281677
9,82,139312606818192,2.3204398155212402,10.052248001098633,0.42412781715393066,139312611361589,-0.11850785464048386,-0.7041749358177185,-0.2922990322113037
9,82,139312615902727,2.5184457302093506,9.890732765197754,1.0193424224853516,139312620446367,0.03145955875515938,-0.8339837789535522,-0.16798794269561768
9,82,139312624988115,2.7840490341186523,9.861420631408691,1.353141188621521,139312629530534,0.23136521875858307,-0.8932377099990845,-0.013744467869400978
9,82,139312634071245,3.026322364807129,9.812965393066406,1.3680963516235352,139312638614398,0.3865249752998352,-0.9190467596054077,0.1394299864768982
9,82,139312643156573,3.397209882736206,9.868000984191895,1.2741780281066895,139312647700518,0.42760565876960754,-0.9172141551971436,0.24587325751781464
9,82,139312652240313,3.7734813690185547,10.118050575256348,1.098903775215149,139312656783770,0.33505958318710327,-0.9118691086769104,0.2793181240558624
9,82,139312661325946,4.121636867523193,10.439287185668945,0.9667003750801086,139312665868305,0.16982053220272064,-0.8904888033866882,0.2574796974658966
9,82,139312670409504,4.3310089111328125,10.657033920288086,1.0528420209884644,139312674952228,0.014202617108821869,-0.8156577944755554,0.2018909603357315
9,82,139312679494159,4.440480709075928,10.747363090515137,1.2765709161758423,139312684036945,-0.08750644326210022,-0.6690501570701599,0.13347405195236206
9,82,139312688578510,4.359723091125488,10.657631874084473,1.3046865463256836,139312693121785,-0.13576480746269226,-0.47571131587028503,0.08506298810243607
9,82,139312697663655,4.216153621673584,10.401001930236816,1.2143574953079224,139312702205708,-0.128434419631958,-0.275958389043808,0.08475755155086517
9,82,139312706746602,4.101297855377197,10.168299674987793,1.0474581718444824,139312711290120,-0.05910121276974678,-0.08735372871160507,0.1463022232055664
9,82,139312715831929,4.091726779937744,10.13479995727539,0.9385846853256226,139312720376180,0.024434609338641167,0.06887505948543549,0.24083362519741058
9,82,139312724916158,4.216751575469971,10.41894817352295,0.5060819983482361,139312729459798,0.05268712714314461,0.16920967400074005,0.33628132939338684
