Record Id,Session Id,Acc Timestamp,AccX,AccY,AccZ,Gyro Timestamp,GyroX,GyroY,GyroZ
9,83,141615263018907,-0.5730810165405273,8.028517723083496,5.897111415863037,141615263018907,-0.12782354652881622,-0.17104226350784302,-0.04306599870324135
9,83,141615272094731,-0.5066801905632019,8.00518798828125,6.0538411140441895,141615272094731,-0.08491026610136032,-0.14049901068210602,-0.0377209298312664
9,83,141615281191373,-0.4737788736820221,8.000402450561523,6.144768714904785,141615281191373,-0.018936822190880775,-0.09636399149894714,-0.032528575509786606
9,83,141615290277615,-0.4833501875400543,8.009973526000977,6.125626087188721,141615290277615,0.04795292019844055,-0.055741455405950546,-0.02779436856508255
9,83,141615299344510,-0.5162515044212341,8.00937557220459,5.9922261238098145,141615299344510,0.10216721147298813,-0.02886338345706463,-0.01817324012517929
9,83,141615308442105,-0.5539384484291077,8.047660827636719,5.830112457275391,141615308442105,0.13607023656368256,-0.012675453908741474,-0.004734205547720194
9,83,141615317514432,-0.5395814776420593,8.085348129272461,5.654240131378174,141615317514432,0.14523321390151978,0.006108652334660292,0.004428773187100887
9,83,141615326610195,-0.5204389095306396,8.089534759521484,5.435894966125488,141615326610195,0.13469578325748444,0.014049900695681572,0.009468411095440388
9,83,141615335693143,-0.534795880317688,8.060821533203125,5.326423168182373,141615335693143,0.11499538272619247,0.010079276748001575,0.008704829961061478
9,83,141615344771695,-0.5772684812545776,8.060821533203125,5.278566837310791,141615344771695,0.08689557760953903,-0.003054326167330146,0.0025961773935705423
9,83,141615353858363,-0.6059823632240295,8.036892890930176,5.226522922515869,141615353858363,0.05375614017248154,-0.010079276748001575,0.0
9,83,141615362939053,-0.6107679605484009,8.051250457763672,5.197809219360352,141615362939053,0.021991148591041565,-0.01710422709584236,-0.0022907445672899485
9,83,141615372027492,-0.5868397355079651,8.070392608642578,5.207380294799805,141615372027492,-0.0024434609804302454,-0.03084869496524334,-0.0032070425804704428
9,83,141615381111721,-0.5581258535385132,8.051250457763672,5.274379253387451,141615381111721,-0.01771509274840355,-0.05345070734620094,-0.005803219974040985
9,83,141615390193569,-0.5587241053581238,8.046463966369629,5.378467082977295,141615390193569,-0.02015855349600315,-0.07925976812839508,-0.01038470957428217
9,83,141615399277614,-0.5252245664596558,8.060821533203125,5.478367328643799,141615399277614,-0.00931569468230009,-0.09315694868564606,-0.014966198243200779
9,83,141615408362514,-0.50129634141922,8.075178146362305,5.521438121795654,141615408362514,0.00733038317412138,-0.1007927656173706,-0.02076941914856434
9,83,141615417447964,-0.5156532526016235,8.084749221801758,5.540580749511719,141615417447964,0.031001411378383636,-0.09468411654233932,-0.02687807008624077
9,83,141615426533351,-0.5395814776420593,8.080561637878418,5.616552829742432,141615426533351,0.050854530185461044,-0.06933320313692093,-0.02932153269648552
9,83,141615435612757,-0.5491527915000916,8.085348129272461,5.573482036590576,141615435612757,0.06643159687519073,-0.036651913076639175,-0.029474247246980667
9,83,141615444691431,-0.5581258535385132,8.099106788635254,5.492724418640137,141615444691431,0.0806342139840126,-0.019853120669722557,-0.02871066704392433
9,83,141615453776636,-0.5724828243255615,8.079963684082031,5.440680503845215,141615453776636,0.0884227454662323,-0.01542434748262167,-0.024892758578062057
9,83,141615462858302,-0.5724828243255615,8.079963684082031,5.368896007537842,141615462858302,0.08506298810243607,-0.01817324012517929,-0.020463986322283745
9,83,141615471948512,-0.5389832854270935,8.09850788116455,5.307280540466309,141615471948512,0.06872233748435974,-0.023976460099220276,-0.01618792861700058
9,83,141615481034205,-0.5198407173156738,8.09850788116455,5.274379253387451,141615481034205,0.04535674303770065,-0.03878994286060333,-0.015271631069481373
9,83,141615490114466,-0.5341976284980774,8.093722343444824,5.335994720458984,141615490114466,0.020463986322283745,-0.05360342562198639,-0.01725694350898266
9,83,141615499198998,-0.5443671345710754,8.089534759521484,5.563910961151123,141615499198998,-0.005039638374000788,-0.0503963828086853,-0.01817324012517929
9,83,141615508283105,-0.5300102233886719,8.085348129272461,5.782854080200195,141615508283105,-0.01664607785642147,-0.044287730008363724,-0.021380282938480377
9,83,141615517357141,-0.5210371017456055,8.090731620788574,5.97308349609375,141615517357141,-0.003054326167330146,-0.05146539583802223,-0.024892758578062057
9,83,141615526452112,-0.5401797294616699,8.100302696228027,6.163312911987305,141615526452112,0.03329215571284294,-0.06475171446800232,-0.025656340643763542
9,83,141615535528893,-0.5874379873275757,8.105687141418457,6.220142364501953,141615535528893,0.08536841720342636,-0.07269296050071716,-0.02076941914856434
9,83,141615544612635,-0.6065805554389954,8.11525821685791,6.200999736785889,141615544612635,0.1417207419872284,-0.07483099400997162,-0.008399397134780884
9,83,141615553694116,-0.6107679605484009,8.138587951660156,6.115456581115723,141615553694116,0.20051652193069458,-0.06902777403593063,0.003512475173920393
9,83,141615562781152,-0.5868397355079651,8.14815902709961,5.97308349609375,141615562781152,0.251218318939209,-0.05360342562198639,0.013591751456260681
9,83,141615571872582,-0.5252245664596558,8.151748657226562,5.797211170196533,141615571872582,0.29184088110923767,-0.029932396486401558,0.01924225501716137
9,83,141615580952110,-0.49651068449020386,8.161319732666016,5.6309099197387695,141615580952110,0.31444287300109863,-0.005192354787141085,0.020005837082862854
9,83,141615590034936,-0.4821537733078003,8.170292854309082,5.516652584075928,141615590034936,0.3179553747177124,0.026419922709465027,0.016951510682702065
9,83,141615599119835,-0.5054838061332703,8.179863929748535,5.492724418640137,141615599119835,0.30253100395202637,0.04932736977934837,0.006872233934700489
9,83,141615608204003,-0.5246263742446899,8.199007034301758,5.516652584075928,141615608204003,0.28328874707221985,0.07391469180583954,-0.003817907767370343
9,83,141615617288536,-0.5670989751815796,8.23250675201416,5.563910961151123,141615617288536,0.26939156651496887,0.08628471940755844,-0.014202617108821869
9,83,141615626372764,-0.6245267391204834,8.247461318969727,5.606383323669434,141615626372764,0.2687807083129883,0.0780380368232727,-0.016340645030140877
9,83,141615635450341,-0.7052844762802124,8.237890243530273,5.558526992797852,141615635450341,0.2817615866661072,0.04245513305068016,-0.0029016099870204926
9,83,141615644534080,-0.747757077217102,8.247461318969727,5.544169902801514,141615644534080,0.3061962127685547,-0.01924225501716137,0.018478672951459885
9,83,141615653617271,-0.747757077217102,8.247461318969727,5.5345988273620605,141615653617271,0.3318525552749634,-0.08261952549219131,0.04184427112340927
9,83,141615662695640,-0.7381857633590698,8.280961036682129,5.482554912567139,141615662695640,0.3568980097770691,-0.13958270847797394,0.06017022579908371
9,83,141615671790244,-0.7190431952476501,8.309076309204102,5.377869129180908,141615671790244,0.37690386176109314,-0.18616119027137756,0.07024950534105301
9,83,141615680873924,-0.6903293132781982,8.313263893127441,5.240281581878662,141615680873924,0.39477166533470154,-0.21731531620025635,0.07513642311096191
9,83,141615689956199,-0.6047859191894531,8.327022552490234,5.059623718261719,141615689956199,0.408974289894104,-0.2278527319431305,0.07864890247583389
9,83,141615699041099,-0.48574298620224,8.330612182617188,4.884349346160889,141615699041099,0.41661009192466736,-0.21853704750537872,0.07925976812839508
9,83,141615708124778,-0.4001995921134949,8.3300142288208,4.661218643188477,141615708124778,0.41752639412879944,-0.1963931769132614,0.07635815441608429
9,83,141615717209922,-0.30927231907844543,8.324031829833984,4.390231132507324,141615717209922,0.4098905920982361,-0.1716531366109848,0.07635815441608429
9,83,141615726293356,-0.2476571500301361,8.308478355407715,4.043272018432617,141615726293356,0.3903428912162781,-0.1518000066280365,0.08155050873756409
9,83,141615735369467,-0.22372891008853912,8.303094863891602,3.7298123836517334,141615735369467,0.3562871515750885,-0.12782354652881622,0.08857546001672745
9,83,141615744454794,-0.19980068504810333,8.25523853302002,3.4821550846099854,141615744454794,0.29993483424186707,-0.10293079167604446,0.09117163717746735
9,83,141615753539206,-0.17108681797981262,8.254639625549316,3.3206396102905273,141615753539206,0.22663100063800812,-0.06811147183179855,0.08491026610136032
9,83,141615762618490,-0.16151553392410278,8.25404167175293,3.126222848892212,141615762618490,0.14233160018920898,-0.042760565876960754,0.06704246252775192
9,83,141615771709555,-0.17527425289154053,8.277970314025879,3.002394199371338,141615771709555,0.047800205647945404,-0.023976460099220276,0.04230241850018501
9,83,141615780793417,-0.18963119387626648,8.310871124267578,2.988037347793579,141615780793417,-0.05146539583802223,-9.162978967651725E-4,0.012675453908741474
9,83,141615789878316,-0.1704886108636856,8.306085586547852,2.9688947200775146,141615789878316,-0.14935655891895294,0.01878410577774048,-0.01863138936460018
9,83,141615798961445,-0.137587308883667,8.296514511108398,2.9593234062194824,141615798961445,-0.24098633229732513,0.024434609338641167,-0.04856378585100174
9,83,141615808045736,-0.07058826833963394,8.329415321350098,3.0167510509490967,141615808045736,-0.32879820466041565,0.01710422709584236,-0.07696902006864548
9,83,141615817130758,-0.038285162299871445,8.287541389465332,3.3403804302215576,141615817130758,-0.413097620010376,0.02825251780450344,-0.10384709388017654
9,83,141615826214558,-5.982056609354913E-4,8.23549747467041,3.620938777923584,141615826214558,-0.49205195903778076,0.0507018156349659,-0.1287398487329483
9,83,141615835291341,0.02273181453347206,8.183453559875488,3.9774694442749023,141615835291341,-0.5566509366035461,0.06780604273080826,-0.1508837193250656
9,83,141615844375326,-0.015553346835076809,8.127820014953613,4.357928276062012,141615844375326,-0.6032294034957886,0.07635815441608429,-0.16951510310173035
9,83,141615853459432,-0.11126625537872314,8.090731620788574,4.7336015701293945,141615853459432,-0.6282749176025391,0.06383541971445084,-0.17989981174468994
9,83,141615862540731,-0.2111666053533554,8.091927528381348,5.099104881286621,141615862540731,-0.6304129362106323,0.033597588539123535,-0.18005253374576569
9,83,141615871631245,-0.27337998151779175,8.097909927368164,5.431707382202148,141615871631245,-0.6105598211288452,-0.00366519158706069,-0.16982053220272064
9,83,141615880703267,-0.30209386348724365,8.127222061157227,5.721837043762207,141615880703267,-0.5777258276939392,-0.039248090237379074,-0.15683965384960175
9,83,141615889797932,-0.30209386348724365,8.141578674316406,6.021538257598877,141615889797932,-0.5400048494338989,-0.06169738993048668,-0.14614951610565186
9,83,141615898884541,-0.2829512655735016,8.170890808105469,6.2638115882873535,141615898884541,-0.5009095072746277,-0.060933809727430344,-0.13973543047904968
9,83,141615907965595,-0.26919254660606384,8.194819450378418,6.39721155166626,141615907965595,-0.4596760869026184,-0.04489859566092491,-0.13668109476566315
9,83,141615917051471,-0.27397820353507996,8.22831916809082,6.539584159851074,141615917051471,-0.413555771112442,-0.01771509274840355,-0.13316862285137177
9,83,141615926136494,-0.3116651475429535,8.228917121887207,6.73938512802124,141615926136494,-0.36071592569351196,0.02168571576476097,-0.12522737681865692
9,83,141615935212788,-0.3930211067199707,8.201399803161621,6.857829570770264,141615935212788,-0.29016098380088806,0.06490442901849747,-0.11056660860776901
9,83,141615944295734,-0.5120640397071838,8.144570350646973,6.809973239898682,141615944295734,-0.20036379992961884,0.09178250283002853,-0.09285151958465576
9,83,141615953379474,-0.6969096064567566,8.117053031921387,6.771090030670166,141615953379474,-0.10522153973579407,0.11362093687057495,-0.07483099400997162
9,83,141615962463824,-0.8536394834518433,8.10807991027832,6.652047157287598,141615962463824,-0.027641652151942253,0.13775011897087097,-0.05451972410082817
9,83,141615971552631,-0.9296116232872009,8.065009117126465,6.375676155090332,141615971552631,0.031001411378383636,0.15943582355976105,-0.02977968007326126
9,83,141615980633014,-0.9200403094291687,8.078168869018555,6.052644729614258,141615980633014,0.0682641938328743,0.1615738570690155,-3.054326225537807E-4
9,83,141615989718890,-0.8482556343078613,8.091927528381348,5.796014785766602,141615989718890,0.08704829961061478,0.15592335164546967,0.023060163483023643
9,83,141615998805377,-0.7770691514015198,8.100302696228027,5.5728840827941895,141615998805377,0.0858265683054924,0.14737124741077423,0.04092797264456749
9,83,141616007887836,-0.7387840151786804,8.109275817871094,5.36351203918457,141616007887836,0.07360926270484924,0.128434419631958,0.0507018156349659
9,83,141616016969927,-0.719641387462616,8.11406135559082,5.306682586669922,141616016969927,0.05467243865132332,0.10461067408323288,0.05543602257966995
9,83,141616026055742,-0.6909275650978088,8.13260555267334,5.344967365264893,141616026055742,0.03878994286060333,0.09437867999076843,0.0607810914516449
9,83,141616035135881,-0.6526423692703247,8.194819450378418,5.449653625488281,141616035135881,0.09896016865968704,0.14049901068210602,0.07635815441608429
9,83,141616044216936,-0.5772684812545776,8.056633949279785,5.473581790924072,141616044216936,0.22831088304519653,0.20815233886241913,0.10247264802455902
9,83,141616053297747,-0.5868397355079651,7.960920810699463,5.212165832519531,141616053297747,0.25106561183929443,0.2785545587539673,0.07666359096765518
9,83,141616062379778,-0.5479564070701599,8.050053596496582,4.670191764831543,141616062379778,0.18005253374576569,0.26908615231513977,0.02519819140434265
9,83,141616071476214,-0.5946164131164551,8.167900085449219,4.070789337158203,141616071476214,0.061391957104206085,0.12095131725072861,-0.01710422709584236
9,83,141616080559099,-0.8129615187644958,8.230711936950684,4.160520553588867,141616080559099,-0.10247264802455902,-0.10094548016786575,-0.03237585723400116
9,83,141616089639116,-0.9421738982200623,8.25703239440918,4.8777689933776855,141616089639116,-0.24526239931583405,-0.26343563199043274,-0.02474004216492176
9,83,141616098726945,-0.9002995491027832,8.201399803161621,5.800800323486328,141616098726945,-0.2958115041255951,-0.3000875413417816,-0.021380282938480377
9,84,141617370395924,-2.679363250732422,8.793622970581055,0.4743770956993103,141617370395924,-0.6470590233802795,-0.7072292566299438,-0.6933320760726929
9,84,141617379526412,-2.9413771629333496,8.699705123901367,0.6634100675582886,141617379526412,-0.6236934065818787,-0.799011766910553,-0.6056728959083557
9,84,141617388611312,-3.3026933670043945,8.58784008026123,0.8763712644577026,141617388611312,-0.6165157556533813,-0.8484918475151062,-0.5007568001747131
9,84,141617397697082,-3.436093330383301,8.446065902709961,0.9379864931106567,141617397697082,-0.6004805564880371,-0.8327620625495911,-0.385303258895874
9,84,141617406781127,-3.298506021499634,8.445467948913574,0.8811569213867188,141617406781127,-0.5726861953735352,-0.8213083148002625,-0.27611109614372253
9,84,141617415864561,-3.193819999694824,8.525627136230469,0.8105686902999878,141617415864561,-0.5442809462547302,-0.8098546266555786,-0.1774563491344452
9,84,141617424942808,-3.2033913135528564,8.48734188079834,0.6867401003837585,141617424942808,-0.5109887719154358,-0.7857254147529602,-0.07192938029766083
9,84,141617434025877,-3.1561331748962402,8.3629150390625,0.35892340540885925,141617434025877,-0.47907108068466187,-0.7583891749382019,0.04444044828414917
9,84,141617443110167,-2.96111798286438,8.160721778869629,-0.1585244983434677,141617443110167,-0.47189339995384216,-0.7376197576522827,0.15531249344348907
9,84,141617452199156,-2.7667012214660645,7.930412292480469,-0.7950153350830078,141617452199156,-0.5134322643280029,-0.7345654368400574,0.2379320114850998
9,84,141617461283629,-2.7008986473083496,7.6630144119262695,-1.2747762203216553,141617461283629,-0.6104071140289307,-0.7324274182319641,0.2848159074783325
9,84,141617470364439,-2.819941520690918,7.501499176025391,-1.451246976852417,141617470364439,-0.7480044960975647,-0.6592763066291809,0.3020728528499603
9,84,141617479448241,-2.981456995010376,7.463811874389648,-1.594218134880066,141617479448241,-0.8964447379112244,-0.5111414790153503,0.3068070709705353
9,84,141617488534116,-3.029313564300537,7.358527660369873,-1.8317056894302368,141617488534116,-1.0334312915802002,-0.3404046595096588,0.30695977807044983
9,84,141617497605893,-2.93001127243042,7.200601577758789,-2.097907304763794,141617497605893,-1.1636983156204224,-0.19547687470912933,0.30283644795417786
9,84,141617506699216,-2.806182861328125,7.070790767669678,-2.544168710708618,141617506699216,-1.3127493858337402,-0.13087788224220276,0.2880229651927948
9,84,141617515781797,-2.682952404022217,6.912864685058594,-2.8863422870635986,141617515781797,-1.4911220073699951,-0.17211128771305084,0.2718350291252136
9,84,141617524866758,-2.5698914527893066,6.726822853088379,-2.857030153274536,141617524866758,-1.7066047191619873,-0.26832255721092224,0.2590068578720093
9,84,141617533951169,-2.575275421142578,6.622735023498535,-2.400599241256714,141617533951169,-1.9552268981933594,-0.3594942092895508,0.24388794600963593
9,84,141617543024473,-2.699702262878418,6.5629143714904785,-1.7306089401245117,141617543024473,-2.2093467712402344,-0.41859540343284607,0.22937989234924316
9,84,141617552119137,-2.9288148880004883,6.379863262176514,-1.0510473251342773,141617552119137,-2.4272730350494385,-0.4616613984107971,0.20463985204696655
9,84,141617561204037,-3.37687087059021,6.169294834136963,-0.5246263742446899,141617561204037,-2.591137647628784,-0.5523748993873596,0.1670716404914856
9,84,141617570284054,-4.028316974639893,5.997610092163086,0.04366901144385338,141617570284054,-2.699413537979126,-0.7124215960502625,0.14523321390151978
9,84,141617579369381,-4.485345840454102,5.916254043579102,0.9457631707191467,141617579369381,-2.7510316371917725,-0.9222537875175476,0.1820378452539444
9,84,141617588457089,-4.6199421882629395,5.8713884353637695,2.115255117416382,141617588457089,-2.7346909046173096,-1.1229230165481567,0.2715296149253845
9,84,141617597539731,-4.6438703536987305,5.964110374450684,3.1513473987579346,141617597539731,-2.6448938846588135,-1.2829697132110596,0.40256020426750183
9,84,141617606623776,-4.881956577301025,6.062216281890869,3.868596076965332,141617606623776,-2.523331642150879,-1.4016302824020386,0.5797111392021179
9,84,141617615704464,-5.161916732788086,6.254838466644287,4.447659015655518,141617615704464,-2.431396484375,-1.4326317310333252,0.8028296232223511
9,84,141617624784176,-5.166104316711426,6.4695940017700195,4.923232555389404,141617624784176,-2.397646188735962,-1.4089607000350952,1.031598687171936
9,84,141617633859309,-5.104488849639893,6.550950050354004,5.318048477172852,141617633859309,-2.398104190826416,-1.4129313230514526,1.2602150440216064
9,84,141617642945125,-4.995615482330322,6.632306098937988,5.651248931884766,141617642945125,-2.4017693996429443,-1.5086843967437744,1.4903584718704224
9,84,141617652043513,-4.7575297355651855,6.769893646240234,6.069993019104004,141617652043513,-2.392301082611084,-1.7493653297424316,1.7018705606460571
9,84,141617661124263,-4.325624942779541,6.969694137573242,6.970292568206787,141617661124263,-2.3834433555603027,-2.088395595550537,1.8787161111831665
9,84,141617670207332,-3.5712878704071045,7.245467185974121,8.912068367004395,141617670207332,-2.3657283782958984,-2.3660337924957275,2.007303237915039
9,84,141617679290828,-2.4981069564819336,7.692924976348877,11.582457542419434,141617679290828,-2.314415693283081,-2.4327707290649414,2.0761783123016357
9,84,141617688375850,-1.296311616897583,8.310871124267578,14.191232681274414,141617688375850,-2.176818370819092,-2.2739458084106445,2.0734293460845947
9,84,141617697448115,-0.37088751792907715,8.749356269836426,16.599609375,141617697448115,-1.933235764503479,-1.976149082183838,2.0176877975463867
9,84,141617706541437,-0.1908276081085205,9.084949493408203,18.41157341003418,141617706541437,-1.5945110321044922,-1.579850196838379,1.9759963750839233
9,84,141617715626765,-0.01136590726673603,8.943174362182617,19.14916229248047,141617715626765,-1.1740829944610596,-1.2518155574798584,1.9769126176834106
9,84,141617724707026,0.039481572806835175,8.638688087463379,19.23051643371582,141617724707026,-0.6769914031028748,-1.098183035850525,2.0164661407470703
9,84,141617733789240,0.11485548317432404,8.199604988098145,18.713069915771484,141617733789240,-0.14416420459747314,-1.1539244651794434,2.0923662185668945
9,84,141617742863764,0.5605186820030212,7.791628837585449,18.091533660888672,141617742863764,0.33505958318710327,-1.3368785381317139,2.171931266784668
9,84,141617751961908,1.201795220375061,7.6498541831970215,17.441883087158203,141617751961908,0.7342600226402283,-1.5390750169754028,2.227367401123047
9,84,141617761047785,1.83828604221344,7.464410305023193,16.749757766723633,141617761047785,1.0538952350616455,-1.704161286354065,2.260812282562256
9,84,141617770127863,2.7314071655273438,7.2921271324157715,15.982260704040527,141617770127863,1.3081679344177246,-1.7956384420394897,2.2572999000549316
9,84,141617779212884,3.724428415298462,7.210172653198242,15.476777076721191,141617779212884,1.5360206365585327,-1.8020524978637695,2.1985039710998535
9,84,141617788297235,4.545764923095703,7.082156658172607,15.289538383483887,141617788297235,1.768149495124817,-1.671021819114685,2.076483726501465
9,84,141617797368767,5.034498691558838,6.822535514831543,14.9342041015625,141617797368767,2.0092885494232178,-1.4482088088989258,1.917811393737793
9,84,141617806465509,5.237888813018799,6.554539203643799,14.730813980102539,141617806465509,2.2591323852539062,-1.154382586479187,1.7565430402755737
9,84,141617815568170,5.137988567352295,6.430112838745117,14.169098854064941,141617815568170,2.520277261734009,-0.8225300312042236,1.6250542402267456
9,84,141617824626824,4.610969066619873,6.225526332855225,12.936197280883789,141617824626824,2.8295278549194336,-0.5772676467895508,1.55892813205719
9,84,141617833707940,4.310669898986816,5.501697540283203,11.842677116394043,141617833707940,3.145803213119507,-0.38759398460388184,1.5528194904327393
9,84,141617842793206,4.366901397705078,5.0566325187683105,10.549356460571289,141617842793206,3.3757941722869873,-0.1765400618314743,1.564578652381897
9,84,141617851884453,4.761716842651367,4.818546772003174,8.977272033691406,141617851884453,3.514460563659668,0.02122756652534008,1.5610661506652832
9,84,141617860964103,5.402993679046631,4.570889472961426,8.080561637878418,141617860964103,3.565162181854248,0.2588541507720947,1.5199854373931885
9,84,141617870048576,5.9784674644470215,4.480560302734375,7.202994346618652,141617870048576,3.533855438232422,0.540921151638031,1.4427109956741333
9,84,141617879135246,6.5150580406188965,4.323830604553223,6.148955821990967,141617879135246,3.4607043266296387,0.7947356700897217,1.3293955326080322
9,84,141617888218376,6.806384086608887,4.391427993774414,5.189434051513672,141617888218376,3.3618969917297363,0.9851729273796082,1.2084441184997559
9,84,141617897307610,6.854838848114014,4.480560302734375,4.537988185882568,141617897307610,3.2426254749298096,1.1229230165481567,1.0911580324172974
9,84,141617906386405,6.764509677886963,4.4614176750183105,4.171886444091797,141617906386405,3.1202995777130127,1.2198978662490845,0.9964739084243774
9,84,141617915463676,6.917052268981934,4.593621253967285,4.305285930633545,141617915463676,3.0137035846710205,1.3280210494995117,0.9069821834564209
9,84,141617924547721,7.145566463470459,4.7503509521484375,4.524229526519775,141617924547721,2.9625437259674072,1.457371711730957,0.807563841342926
9,84,141617933631217,7.430910587310791,4.872385025024414,4.425525665283203,141617933631217,2.981175184249878,1.5531249046325684,0.7041749358177185
9,84,141617942713614,7.677969455718994,4.90408992767334,4.145565032958984,141617942713614,3.0389018058776855,1.58733332157135,0.6065891981124878
9,84,141617951804130,7.93998384475708,4.820341110229492,3.5234313011169434,141617951804130,3.1056389808654785,1.5525140762329102,0.5065600275993347
9,84,141617960885978,8.225327491760254,4.76530647277832,2.7349963188171387,141617960885978,3.1618385314941406,1.448819637298584,0.3839288055896759
9,84,141617969970817,8.496912956237793,4.837689399719238,1.7802600860595703,141617969970817,3.174514055252075,1.3063353300094604,0.22846360504627228
9,84,141617979056632,8.721240043640137,4.930410861968994,0.9535398483276367,141617979056632,3.1202995777130127,1.1578950881958008,0.036651913076639175
9,84,141617988138419,8.922237396240234,5.13739013671875,0.26919254660606384,141617988138419,3.00423526763916,1.0566442012786865,-0.17623461782932281
9,84,141617997224356,9.047262191772461,5.36769962310791,-0.5383850932121277,141617997224356,2.84495210647583,0.9535606503486633,-0.3952298164367676
9,84,141618006307791,9.053842544555664,5.680561065673828,-1.2185449600219727,141618006307791,2.6484062671661377,0.8321511745452881,-0.6062837839126587
9,84,141618015384512,9.055039405822754,5.873781204223633,-2.0506489276885986,141618015384512,2.392759084701538,0.6562219858169556,-0.8109236359596252
9,84,141618024468618,9.042476654052734,6.1435723304748535,-2.664407968521118,141618024468618,2.104430675506592,0.4346306324005127,-1.0065531730651855
9,84,141618033552664,8.986245155334473,6.338587284088135,-2.7834508419036865,141618033552664,1.8012888431549072,0.22327125072479248,-1.1823296546936035
9,84,141618042636160,8.677571296691895,6.478567123413086,-2.366501569747925,141618042636160,1.4868459701538086,0.11499538272619247,-1.3350459337234497
9,84,141618051723867,7.816753387451172,6.4456658363342285,-1.8741782903671265,141618051723867,1.1814134120941162,0.11331550031900406,-1.441794753074646
9,84,141618060805410,6.809374809265137,6.375676155090332,-1.2735798358917236,141618060805410,0.9381362795829773,0.16554448008537292,-1.4804319143295288
9,84,141618069892324,6.157928943634033,6.413362979888916,-0.6239284873008728,141618069892324,0.7971791625022888,0.2301434874534607,-1.457066297531128
9,84,141618078977590,5.963512420654297,6.571887493133545,-0.3206382393836975,141618078977590,0.7590000629425049,0.2635883390903473,-1.4031574726104736
9,84,141618088060109,6.01675271987915,6.805187702178955,-0.30149564146995544,141618088060109,0.7787004709243774,0.24678955972194672,-1.3501648902893066
9,84,141618097145253,6.1124653816223145,7.074978351593018,-0.5437689423561096,141618097145253,0.8242099285125732,0.1895209401845932,-1.3180944919586182
9,84,141618106229970,6.080760478973389,7.311867713928223,-1.0289137363433838,141618106229970,0.8489499688148499,0.10613783448934555,-1.3171781301498413
9,84,141618115305348,6.029912948608398,7.543971538543701,-1.5858432054519653,141618115305348,0.8151996731758118,-0.003817907767370343,-1.345278024673462
9,84,141618124389943,5.902495384216309,7.777271747589111,-1.9381862878799438,141618124389943,0.7177666425704956,-0.11927144229412079,-1.4001030921936035
9,84,141618133473927,5.579464435577393,7.788637638092041,-1.710868239402771,141618133473927,0.5636758804321289,-0.1872301995754242,-1.4563027620315552
9,84,141618142549915,5.099703311920166,7.81555700302124,-1.4225330352783203,141618142549915,0.38209620118141174,-0.21303924918174744,-1.494939923286438
9,84,141618151646107,4.762315273284912,7.88913631439209,-1.038485050201416,141618151646107,0.25045475363731384,-0.25366178154945374,-1.507462739944458
9,84,141618160725574,4.505684852600098,7.8765740394592285,-0.7393822073936462,141618160725574,0.20112738013267517,-0.35613444447517395,-1.4995214939117432
9,84,141618169812061,4.182653903961182,7.868797302246094,-0.7926225066184998,141618169812061,0.21441370248794556,-0.5309945940971375,-1.4608842134475708
9,84,141618178897144,3.9499518871307373,7.764111042022705,-1.2735798358917236,141618178897144,0.25564709305763245,-0.8052731156349182,-1.387580394744873
9,84,141618187968616,3.892524242401123,7.592426300048828,-1.730010747909546,141618187968616,0.29306259751319885,-1.1675162315368652,-1.3028228282928467
9,84,141618197065845,4.001397609710693,7.496115207672119,-2.053041934967041,141618197065845,0.30344730615615845,-1.557706356048584,-1.2333369255065918
9,84,141618206149585,4.292125701904297,7.564908981323242,-2.589632272720337,141618206149585,0.2695443034172058,-1.9634735584259033,-1.1954632997512817
9,84,141618215229114,4.601995944976807,7.728816986083984,-2.8929226398468018,141618215229114,0.1598939746618271,-2.322967767715454,-1.1974486112594604
9,84,141618224310656,4.786841869354248,7.737192153930664,-3.0352954864501953,141618224310656,-0.023518312722444534,-2.579378604888916,-1.2327260971069336
9,84,141618233394579,4.777270317077637,7.689933776855469,-2.9114668369293213,141618233394579,-0.24908030033111572,-2.7294986248016357,-1.2817480564117432
9,84,141618242478137,4.591228485107422,7.606184959411621,-2.5076780319213867,141618242478137,-0.47937649488449097,-2.7702739238739014,-1.326035737991333
9,84,141618251567614,4.366901397705078,7.537989616394043,-1.5433706045150757,141618251567614,-0.6786713004112244,-2.6673431396484375,-1.3617713451385498
9,84,141618260649645,4.166502475738525,7.454838752746582,-0.8165507316589355,141618260649645,-0.7967209815979004,-2.487748622894287,-1.3938417434692383
9,84,141618269732898,3.8626139163970947,7.452445983886719,-0.3798605799674988,141618269732898,-0.7918340563774109,-2.3383922576904297,-1.4242323637008667
9,84,141618278818042,3.2548370361328125,7.545766353607178,-0.2961117923259735,141618278818042,-0.7121161818504333,-2.2350032329559326,-1.4471397399902344
9,84,141618287904223,2.599203586578369,7.563114166259766,-0.5120640397071838,141618287904223,-0.640644907951355,-2.1534526348114014,-1.4489723443984985
9,84,141618296983995,2.262413740158081,7.57806921005249,-0.8745766878128052,141618296983995,-0.6148358583450317,-2.065946340560913,-1.4379768371582031
9,84,141618306070665,2.1918256282806396,7.605587005615234,-1.3836497068405151,141618306070665,-0.6311765313148499,-1.9837849140167236,-1.432326316833496
9,84,141618315144395,2.097309112548828,7.596015453338623,-1.892722725868225,141618315144395,-0.6960809230804443,-1.9202549457550049,-1.439045786857605
9,84,141618324233019,1.6552350521087646,7.506882667541504,-2.0506489276885986,141618324233019,-0.8052731156349182,-1.8526015281677246,-1.4466816186904907
9,84,141618333316332,0.9230313301086426,7.387241840362549,-1.953141450881958,141618333316332,-0.949895441532135,-1.739438772201538,-1.4343116283416748
9,84,141618342409716,0.1537388563156128,7.347760200500488,-2.03629207611084,141618342409716,-1.11085844039917,-1.6406313180923462,-1.4031574726104736
9,84,141618351487902,-0.534795880317688,7.412964344024658,-2.0572292804718018,141618351487902,-1.2597568035125732,-1.6013832092285156,-1.357953429222107
9,84,141618360561632,-0.8859425783157349,7.5804619789123535,-2.3150558471679688,141618360561632,-1.381929874420166,-1.6797267198562622,-1.310916781425476
9,84,141618369654282,-1.1748759746551514,7.805387496948242,-2.3641088008880615,141618369654282,-1.4622586965560913,-1.9257526397705078,-1.2878566980361938
9,84,141618378738388,-1.9674984216690063,7.837690353393555,-2.4849462509155273,141618378738388,-1.5034921169281006,-2.2036964893341064,-1.2765556573867798
9,84,141618387821457,-2.176870346069336,7.929814338684082,-1.9106688499450684,141618387821457,-1.5638149976730347,-2.434145212173462,-1.2877039909362793
9,84,141618396908433,-2.252842426300049,7.997411251068115,-1.573280930519104,141618396908433,-1.6633861064910889,-2.5859453678131104,-1.3338242769241333
9,84,141618405987717,-2.6566312313079834,8.043473243713379,-1.2083754539489746,141618405987717,-1.7942639589309692,-2.6726882457733154,-1.3881912231445312
9,84,141618415068833,-3.118446111679077,7.936992645263672,-0.8530412912368774,141618415068833,-1.9384281635284424,-2.722168207168579,-1.4240796566009521
9,84,141618424155808,-3.713660717010498,7.750950813293457,-0.18424734473228455,141618424155808,-2.0775527954101562,-2.7171285152435303,-1.4317153692245483
9,84,141618433237900,-4.303491592407227,7.707880020141602,0.6173482537269592,141618433237900,-2.1981985569000244,-2.6398541927337646,-1.419803500175476
9,84,141618442325546,-4.764708042144775,7.654041290283203,1.290927767753601,141618442325546,-2.2899811267852783,-2.5106561183929443,-1.3904820680618286
9,84,141618451409103,-5.1840500831604,7.486543655395508,2.1122641563415527,141618451409103,-2.3597724437713623,-2.347555160522461,-1.3390166759490967
9,84,141618460491317,-5.551348686218262,7.29093074798584,3.090928554534912,141618460491317,-2.4016168117523193,-2.1511619091033936,-1.2589932680130005
9,84,141618469575729,-5.571089267730713,7.307082176208496,3.9942193031311035,141618469575729,-2.4049763679504395,-1.9420933723449707,-1.1577423810958862
9,84,141618478662948,-5.471786975860596,7.407580852508545,4.698307037353516,141618478662948,-2.367255449295044,-1.7279850244522095,-1.053742527961731
9,84,141618487735275,-5.471786975860596,7.456633567810059,5.3353962898254395,141618487735275,-2.297922372817993,-1.5161675214767456,-0.9541715383529663
9,84,141618496828963,-5.514857769012451,7.552944660186768,5.886941909790039,141618496828963,-2.2067506313323975,-1.2912163734436035,-0.8506298661231995
9,84,141618505907577,-5.595615863800049,7.5774712562561035,5.986244201660156,141618505907577,-2.0871739387512207,-1.0790934562683105,-0.7312057018280029
9,84,141618514990340,-5.876173973083496,7.478767395019531,5.819344520568848,141618514990340,-1.9576704502105713,-0.8857545852661133,-0.5997169613838196
9,84,141618524076948,-6.251847267150879,7.223333358764648,5.60399055480957,141618524076948,-1.8671096563339233,-0.7050912380218506,-0.46700647473335266
9,84,141618533158309,-6.523432731628418,6.919445037841797,5.327619552612305,141618533158309,-1.8336647748947144,-0.5490151643753052,-0.3364340364933014
9,84,141618542242537,-6.714858531951904,6.6490559577941895,5.251049518585205,141618542242537,-1.8431332111358643,-0.4155410826206207,-0.2148718535900116
9,84,141618551330733,-6.905686378479004,6.350551128387451,5.1840500831604,141618551330733,-1.8894062042236328,-0.3162754774093628,-0.09682214260101318
9,84,141618560411726,-7.010970115661621,6.132206439971924,5.174479007720947,141618560411726,-1.972025752067566,-0.2616030275821686,0.023518312722444534
9,84,141618569498274,-6.982854843139648,6.123233318328857,5.574080467224121,141618569498274,-2.0790798664093018,-0.21090123057365417,0.14217889308929443
9,84,141618578582869,-6.7310099601745605,6.242276191711426,6.174080848693848,141618578582869,-2.1540634632110596,-0.14309518039226532,0.25045475363731384
9,84,141618587666670,-6.403193473815918,6.403193473815918,6.702296257019043,141618587666670,-2.1598668098449707,-0.07406741380691528,0.3452915847301483
9,84,141618596750226,-6.141777515411377,6.488736629486084,7.1024956703186035,141618596750226,-2.1058051586151123,-0.034666601568460464,0.4291328489780426
9,84,141618605832196,-5.937789440155029,6.559325218200684,7.40279483795166,141618605832196,-2.0089831352233887,-0.02687807008624077,0.5068654417991638
9,84,141618614911665,-5.7619171142578125,6.601199626922607,7.27956485748291,141618614911665,-1.8767307996749878,-0.05619960278272629,0.588874101638794
9,84,141618623996137,-5.5621161460876465,6.576074600219727,6.928418159484863,141618623996137,-1.7539467811584473,-0.14065171778202057,0.670577347278595
9,84,141618633079145,-5.5860443115234375,6.356533527374268,6.738188743591309,141618633079145,-1.698510766029358,-0.23167064785957336,0.7426594495773315
9,84,141618642167585,-5.639284610748291,6.10468864440918,6.766902446746826,141618642167585,-1.7218763828277588,-0.2926044464111328,0.8205447196960449
9,84,141618651246992,-5.539982795715332,6.038886070251465,7.10010290145874,141618651246992,-1.7847955226898193,-0.30482175946235657,0.9068294763565063
9,84,141618660332135,-5.388636589050293,6.005984783172607,7.685148239135742,141618660332135,-1.8429805040359497,-0.26771169900894165,0.9954048991203308
9,84,141618669417462,-5.208576679229736,6.03948450088501,8.408378601074219,141618669417462,-1.8579466342926025,-0.18799377977848053,1.083369493484497
9,84,141618678506634,-5.018945693969727,6.087340831756592,8.974879264831543,141618678506634,-1.8139643669128418,-0.10583240538835526,1.1633929014205933
9,84,141618687588544,-4.872385025024414,6.01675271987915,9.531808853149414,141618687588544,-1.7284432649612427,-0.025961773470044136,1.2370021343231201
9,84,141618696671796,-4.735994338989258,5.946164131164551,10.211968421936035,141618696671796,-1.625817894935608,0.09926560521125793,1.3058772087097168
9,84,141618705750775,-4.560719966888428,5.946164131164551,10.716854095458984,141618705750775,-1.5288430452346802,0.25503623485565186,1.352608323097229
9,84,141618714832379,-4.332803726196289,5.869594097137451,10.99322509765625,141618714832379,-1.4158328771591187,0.33918291330337524,1.3744467496871948
9,84,141618723919842,-4.229313850402832,5.736792087554932,11.321640014648438,141618723919842,-1.2735012769699097,0.33918291330337524,1.4017829895019531
9,84,141618732992473,-4.067798614501953,5.7649078369140625,11.564512252807617,141618732992473,-1.1116219758987427,0.31093040108680725,1.4388930797576904
9,84,141618742088726,-3.9158542156219482,5.7792649269104,11.816954612731934,141618742088726,-0.944855809211731,0.2929098904132843,1.4729487895965576
9,84,141618751172771,-3.87876558303833,5.627320766448975,12.088540077209473,141618751172771,-0.7860308289527893,0.31031954288482666,1.5167783498764038
9,84,141618760250285,-3.675375461578369,5.489135265350342,12.379267692565918,141618760250285,-0.6440047025680542,0.3683517575263977,1.5729780197143555
9,84,141618769339641,-3.3714871406555176,5.358726501464844,12.313465118408203,141618769339641,-0.5199990272521973,0.3975205719470978,1.623068928718567
9,84,141618778424174,-3.0586254596710205,5.1529436111450195,12.457035064697266,141618778424174,-0.4164573848247528,0.3862195611000061,1.6667457818984985
9,84,141618787495768,-2.7122645378112793,5.146961688995361,12.567702293395996,141618787495768,-0.3246748745441437,0.3625485301017761,1.6965254545211792
9,84,141618796593059,-2.445464849472046,5.368896007537842,12.477972030639648,141618796593059,-0.22113321721553802,0.3113885521888733,1.7182111740112305
9,84,141618805675089,-2.3024935722351074,5.515456199645996,12.44985580444336,141618805675089,-0.08643743395805359,0.2623666226863861,1.7424931526184082
9,84,141618814753397,-2.1924238204956055,5.647659778594971,12.236296653747559,141618814753397,0.06841690838336945,0.24113905429840088,1.768760323524475
9,84,141618823837565,-1.9968105554580688,5.831308841705322,11.784651756286621,141618823837565,0.2272418737411499,0.2431243658065796,1.7919732332229614
9,84,141618832918131,-1.810768485069275,5.924628734588623,11.233704566955566,141618832918131,0.36682456731796265,0.2594650089740753,1.8052594661712646
9,84,141618842010355,-1.8293129205703735,5.814558982849121,10.710872650146484,141618842010355,0.4738787114620209,0.30604347586631775,1.8219056129455566
9,84,141618851093546,-1.8963119983673096,5.661418437957764,10.25922679901123,141618851093546,0.5450445413589478,0.38011088967323303,1.8564194440841675
9,84,141618860176005,-1.848455548286438,5.589633464813232,10.012167930603027,141618860176005,0.5876523852348328,0.49357911944389343,1.899485468864441
9,84,141618869255900,-1.6582261323928833,5.602196216583252,9.812965393066406,141618869255900,0.6102544069290161,0.6246097087860107,1.93598473072052
9,84,141618878345621,-1.454237937927246,5.644070625305176,9.770493507385254,141618878345621,0.6420193910598755,0.7527387142181396,1.9619464874267578
9,84,141618887417153,-1.1826525926589966,5.790032386779785,9.704689979553223,141618887417153,0.6858489513397217,0.8571966290473938,1.9727892875671387
9,84,141618896501137,-0.8213363885879517,5.788238048553467,9.591629981994629,141618896501137,0.7417431473731995,0.9288206100463867,1.975232720375061
9,84,141618905596475,-0.5892325639724731,5.725426197052002,9.616155624389648,141618905596475,0.7877107262611389,1.0013608932495117,1.9782871007919312
9,84,141618914675332,-0.3278166949748993,5.690132141113281,9.474381446838379,141618914675332,0.811687171459198,1.0809260606765747,1.9840903282165527
9,84,141618923761330,-0.052043892443180084,5.62672233581543,9.313464164733887,141618923761330,0.826195240020752,1.136056661605835,1.993406057357788
9,84,141618932843973,0.18963119387626648,5.544768333435059,9.2859468460083,141618932843973,0.837496280670166,1.1733194589614868,2.0089831352233887
9,84,141618941931619,0.3846462368965149,5.505885124206543,9.172286987304688,141618941931619,0.8523097038269043,1.1956160068511963,2.02425479888916
9,84,141618951017190,0.5934200286865234,5.49930477142334,9.020941734313965,141618951017190,0.8849910497665405,1.2021827697753906,2.0502164363861084
9,84,141618960096840,0.9403793215751648,5.559723377227783,8.903095245361328,141618960096840,0.9311113357543945,1.207069754600525,2.0920608043670654
9,84,141618969178199,1.4775680303573608,5.670989513397217,8.785846710205078,141618969178199,0.9819658994674683,1.2264647483825684,2.1368067264556885
9,84,141618978263649,2.1337995529174805,5.791228771209717,8.621339797973633,141618978263649,1.03037691116333,1.2530373334884644,2.169182538986206
9,84,141618987343972,2.675773859024048,5.830710411071777,8.323433876037598,141618987343972,1.0477865934371948,1.2615894079208374,2.1788036823272705
9,84,141618996434730,3.061018466949463,5.8612189292907715,7.872984886169434,141618996434730,1.0170906782150269,1.201724648475647,2.1670444011688232
9,84,141619005504860,3.3655049800872803,5.921039581298828,7.616952896118164,141619005504860,0.9418014883995056,1.0583239793777466,2.135279417037964
9,84,141619014596230,3.541377544403076,5.896512985229492,7.622336387634277,141619014596230,0.8436049222946167,0.8484918475151062,2.096794843673706
9,84,141619023680092,3.7639100551605225,5.84865665435791,8.151150703430176,141619023680092,0.7422012686729431,0.636521577835083,2.0561723709106445
9,84,141619032759376,4.086342811584473,5.839085578918457,8.879166603088379,141619032759376,0.6539312601089478,0.4489859640598297,2.0115792751312256
9,84,141619041852210,4.48414945602417,5.787041664123535,9.850652694702148,141619041852210,0.5859724879264832,0.27611109614372253,1.9663752317428589
9,84,141619050933265,5.110470771789551,5.819942951202393,11.084152221679688,141619050933265,0.5619960427284241,0.1420261710882187,1.915215253829956
9,84,141619060018531,5.86421012878418,5.79063081741333,12.336795806884766,141619060018531,0.5975789427757263,0.031001411378383636,1.8446602821350098
9,84,141619069092750,6.632904529571533,5.732006549835205,13.38006591796875,141619069092750,0.7124215960502625,-0.10461067408323288,1.7522670030593872
9,84,141619078187599,7.11146879196167,5.627320766448975,14.532210350036621,141619078187599,0.8930850028991699,-0.24373523890972137,1.657124638557434
9,84,141619087268775,7.550551891326904,5.20379114151001,15.422938346862793,141619087268775,1.112385630607605,-0.33292156457901,1.5598443746566772
9,84,141619096356117,8.157132148742676,4.931009292602539,16.03849220275879,141619096356117,1.3658946752548218,-0.36392298340797424,1.4504995346069336
9,84,141619105433081,8.745766639709473,4.73300313949585,16.078571319580078,141619105433081,1.676672339439392,-0.38438695669174194,1.3032809495925903
9,84,141619114519141,9.139386177062988,4.468596458435059,15.637694358825684,141619114519141,2.023949384689331,-0.43157628178596497,1.1212431192398071
9,84,141619123601233,9.5862455368042,4.431507587432861,14.864213943481445,141619123601233,2.3412938117980957,-0.4492913782596588,0.9095783233642578
9,84,141619132686011,9.720842361450195,4.628915309906006,13.856237411499023,141619132686011,2.6116015911102295,-0.40393465757369995,0.6721044778823853
9,84,141619141773291,9.285347938537598,4.785645484924316,12.671192169189453,141619141773291,2.8315131664276123,-0.28267788887023926,0.4492913782596588
9,84,141619150852514,8.664410591125488,4.776073932647705,11.337791442871094,141619150852514,2.9973630905151367,-0.11392636597156525,0.2825251817703247
9,84,141619159939978,8.346763610839844,4.631906509399414,10.000802040100098,141619159939978,3.1091513633728027,0.07223481684923172,0.16065755486488342
9,84,141619169026648,8.309076309204102,4.5206403732299805,8.812167167663574,141619169026648,3.1662673950195312,0.266184538602829,0.044745877385139465
9,84,141619178095800,8.371888160705566,4.441677093505859,7.557132244110107,141619178095800,3.196352481842041,0.40683624148368835,-0.08155050873756409
9,84,141619187193516,8.334799766540527,4.344169616699219,6.410970211029053,141619187193516,3.2288808822631836,0.4634940028190613,-0.21151208877563477
9,84,141619196278051,8.188239097595215,4.275974273681641,5.350351333618164,141619196278051,3.252246618270874,0.4766276180744171,-0.3445279896259308
9,84,141619205352575,8.099106788635254,4.359723091125488,4.213760852813721,141619205352575,3.247054100036621,0.455705463886261,-0.4775438904762268
9,84,141619214438146,7.8526458740234375,4.335196495056152,3.3098719120025635,141619214438146,3.216205596923828,0.4369213581085205,-0.6149885654449463
9,84,141619223524083,7.359126091003418,4.231108665466309,2.338385820388794,141619223524083,3.15740966796875,0.4179845452308655,-0.7392996549606323
9,84,141619232611364,6.784848690032959,4.103092670440674,1.3381860256195068,141619232611364,3.0532572269439697,0.3885102868080139,-0.8260425329208374
9,84,141619241695165,6.367899417877197,4.112663745880127,0.28115665912628174,141619241695165,2.919630527496338,0.3248275816440582,-0.8788823485374451
9,84,141619250776768,6.017350673675537,4.183850288391113,-0.6616154313087463,141619250776768,2.778215169906616,0.21105393767356873,-0.9187413454055786
9,84,141619259860386,5.595615863800049,4.3172502517700195,-1.3615161180496216,141619259860386,2.616335868835449,0.09728029370307922,-0.9578366875648499
9,84,141619268946262,5.1218366622924805,4.514060020446777,-1.786242127418518,141619268946262,2.414902925491333,0.03833179548382759,-0.9914342761039734
9,84,141619278017490,4.58584451675415,4.696512699127197,-2.0213370323181152,141619278017490,2.180330753326416,0.0429132841527462,-1.013578176498413
9,84,141619287114414,4.092324733734131,4.802993297576904,-2.2271196842193604,141619287114414,1.9394971132278442,0.06200282275676727,-1.0059423446655273
9,84,141619296198398,3.789034605026245,4.961517810821533,-2.3611178398132324,141619296198398,1.725541591644287,0.041691552847623825,-0.9695958495140076
9,84,141619305276402,3.675973892211914,5.151747226715088,-2.5232315063476562,141619305276402,1.5584700107574463,-0.04841107130050659,-0.9190467596054077
9,84,141619314359410,3.586242914199829,5.30847692489624,-2.794816732406616,141619314359410,1.444390892982483,-0.22632557153701782,-0.8584184050559998
9,84,141619323443454,3.5916268825531006,5.446064472198486,-3.0137600898742676,141619323443454,1.355051875114441,-0.4579962193965912,-0.7958046793937683
9,84,141619332519443,3.73459792137146,5.5968122482299805,-3.2416765689849854,141619332519443,1.2678507566452026,-0.7079927921295166,-0.7475463151931763
9,84,141619341616366,3.9732820987701416,5.790032386779785,-3.697509288787842,141619341616366,1.1794281005859375,-0.9746354818344116,-0.7272350788116455
9,84,141619350698580,4.169493675231934,5.973681926727295,-4.082155227661133,141619350698580,1.0752755403518677,-1.2541064023971558,-0.73685622215271
9,84,141619359781711,4.246063709259033,6.205785751342773,-4.443471431732178,141619359781711,0.9373727440834045,-1.508989930152893,-0.7675521969795227
9,84,141619368854282,4.180859565734863,6.448058605194092,-4.7336015701293945,141619368854282,0.7565566301345825,-1.7318029403686523,-0.8046622276306152
9,84,141619377943393,3.868596076965332,6.744170665740967,-4.825126647949219,141619377943393,0.5372560024261475,-1.9326249361038208,-0.8132143616676331
9,84,141619387035983,3.7974095344543457,6.883552551269531,-4.302295207977295,141619387035983,0.32986724376678467,-2.013259172439575,-0.8159632682800293
9,84,141619396115938,3.9355950355529785,7.1162543296813965,-4.016951084136963,141619396115938,0.1661553531885147,-2.024101972579956,-0.8315402865409851
9,84,141619405196871,3.9080774784088135,7.407580852508545,-3.6083765029907227,141619405196871,0.05849034711718559,-1.9712620973587036,-0.8662069439888
9,84,141619414284334,3.6849467754364014,7.575676441192627,-3.266801118850708,141619414284334,-0.007635815534740686,-1.8547395467758179,-0.8982773423194885
9,84,141619423365145,3.4432718753814697,7.777271747589111,-3.0203404426574707,141619423365145,-0.056810468435287476,-1.668120265007019,-0.9301950335502625
9,84,141619432448091,3.139981508255005,8.006982803344727,-2.978466033935547,141619432448091,-0.09422596544027328,-1.430493712425232,-0.9685268402099609
9,84,141619441536959,2.765504837036133,8.132007598876953,-3.308077335357666,141619441536959,-0.12782354652881622,-1.225395679473877,-1.0122036933898926
9,84,141619450619600,2.490330219268799,8.22712230682373,-3.7363924980163574,141619450619600,-0.17547103762626648,-1.1081095933914185,-1.0546588897705078
9,84,141619459703096,2.2295124530792236,8.289934158325195,-4.094119548797607,141619459703096,-0.25931230187416077,-1.0600038766860962,-1.1007791757583618
9,84,141619468787996,1.9166508913040161,8.419744491577148,-4.133002758026123,141619468787996,-0.38896843791007996,-1.024726390838623,-1.1418598890304565
9,84,141619477869477,1.5463616847991943,8.478368759155273,-4.01037073135376,141619477869477,-0.542142927646637,-0.9691377282142639,-1.1702650785446167
9,84,141619486957795,1.113858938217163,8.438288688659668,-3.845266103744507,141619486957795,-0.685390830039978,-0.9161451458930969,-1.1835514307022095
9,84,141619496041108,0.7950153350830078,8.46879768371582,-3.5706896781921387,141619496041108,-0.8042041063308716,-0.8701775670051575,-1.187827467918396
9,84,141619505117585,0.576670229434967,8.51306438446045,-3.2859437465667725,141619505117585,-0.8885034918785095,-0.8239045143127441,-1.1959214210510254
9,84,141619514201692,0.3248256742954254,8.629117012023926,-2.940180778503418,141619514201692,-0.9317222237586975,-0.7761042714118958,-1.2124147415161133
9,84,141619523286591,0.1453639715909958,8.820542335510254,-2.7978079319000244,141619523286591,-0.9587529897689819,-0.7305948138237,-1.2348641157150269
9,84,141619532361604,0.064606212079525,8.964112281799316,-2.7984061241149902,141619532361604,-0.993114173412323,-0.7002043128013611,-1.267698049545288
9,84,141619541458099,-0.06340979784727097,8.940781593322754,-2.760719060897827,141619541458099,-1.038318157196045,-0.6751587986946106,-1.2974777221679688
9,84,141619550540741,-0.27756741642951965,8.808578491210938,-2.675773859024048,141619550540741,-1.0998629331588745,-0.6375905871391296,-1.3101532459259033
9,84,141619559624725,-0.4588237404823303,8.60040283203125,-2.638087034225464,141619559624725,-1.1699596643447876,-0.5934556126594543,-1.307709813117981
9,84,141619568709991,-0.6454638838768005,8.377870559692383,-2.5669004917144775,141619568709991,-1.2469286918640137,-0.5746715068817139,-1.2985467910766602
9,84,141619577782195,-0.8644071817398071,8.160123825073242,-2.6386852264404297,141619577782195,-1.3200798034667969,-0.6085745096206665,-1.2867876291275024
9,84,141619586877960,-1.0929217338562012,7.994420528411865,-2.6871397495269775,141619586877960,-1.3854423761367798,-0.7029531598091125,-1.2764029502868652
9,84,141619595959198,-1.3836497068405151,7.81555700302124,-2.6500511169433594,141619595959198,-1.4634803533554077,-0.8141306638717651,-1.270447015762329
9,84,141619605039398,-1.716252088546753,7.707880020141602,-2.555534601211548,141619605039398,-1.5752687454223633,-0.9178250432014465,-1.265865445137024
9,84,141619614124663,-2.0584256649017334,7.638488292694092,-2.4472594261169434,141619614124663,-1.7227927446365356,-1.0144944190979004,-1.2589932680130005
9,84,141619623207366,-2.397010087966919,7.46919584274292,-2.1822543144226074,141619623207366,-1.884366512298584,-1.1227703094482422,-1.2376129627227783
9,84,141619632296050,-2.768495798110962,7.22452974319458,-1.693520188331604,141619632296050,-2.0363192558288574,-1.2435688972473145,-1.200197458267212
9,84,141619641380034,-3.078366279602051,7.051050186157227,-1.189831018447876,141619641380034,-2.1626157760620117,-1.4143058061599731,-1.1516337394714355
9,84,141619650461638,-3.3690943717956543,6.963712215423584,-0.4588237404823303,141619650461638,-2.2432498931884766,-1.6319265365600586,-1.096961259841919
9,84,141619659545379,-3.669393539428711,6.872186660766602,0.4582255482673645,141619659545379,-2.2569942474365234,-1.8620699644088745,-1.0299187898635864
9,84,141619668631255,-4.022335052490234,6.719046115875244,1.46500563621521,141619668631255,-2.202322006225586,-2.0534234046936035,-0.9382890462875366
9,84,141619677714568,-4.308277130126953,6.646064758300781,2.2917258739471436,141619677714568,-2.1032090187072754,-2.1734585762023926,-0.8176431059837341
9,84,141619686799222,-4.446462631225586,6.666403770446777,2.6811578273773193,141619686799222,-1.9880609512329102,-2.236072301864624,-0.6769914031028748
9,84,141619695879912,-4.642076015472412,6.444469451904297,3.061018466949463,141619695879912,-1.9077321290969849,-2.2295055389404297,-0.5215262174606323
9,84,141619704959562,-4.8191447257995605,6.15134859085083,3.3744781017303467,141619704959562,-1.9019289016723633,-2.146885871887207,-0.37339138984680176
9,84,141619714047758,-4.810770034790039,6.023332595825195,3.6598222255706787,141619714047758,-1.9675970077514648,-2.028836250305176,-0.2587014436721802
9,84,141619723129423,-4.691727161407471,6.052046775817871,3.9499518871307373,141619723129423,-2.0444133281707764,-1.9060522317886353,-0.18570303916931152
9,84,141619732216826,-4.610969066619873,6.142375946044922,4.202394962310791,141619732216826,-2.09083890914917,-1.8040378093719482,-0.13759739696979523
9,84,141619741301237,-4.5445685386657715,6.204588890075684,4.516452789306641,141619741301237,-2.149176597595215,-1.6626224517822266,-0.08307767659425735
9,84,141619750383146,-4.621737003326416,6.001199245452881,4.9776692390441895,141619750383146,-2.2770001888275146,-1.4223997592926025,-0.01710422709584236
9,84,141619759466459,-4.576273441314697,5.574678421020508,5.676971912384033,141619759466459,-2.4912612438201904,-1.069166898727417,0.08231408894062042
9,84,141619768552091,-4.193421840667725,5.0979084968566895,6.182455539703369,141619768552091,-2.765997886657715,-0.6976081132888794,0.22999076545238495
9,84,141619777637174,-3.7148571014404297,5.103292465209961,7.562515735626221,141619777637174,-3.0072896480560303,-0.36590829491615295,0.3300199508666992
9,84,141619786720120,-3.7124643325805664,4.9022955894470215,9.155537605285645,141619786720120,-3.1389310359954834,-0.08200865983963013,0.4011857509613037
9,84,141619795801846,-3.6993038654327393,4.89990234375,10.42492961883545,141619795801846,-3.1120529174804688,0.11988230794668198,0.5204572081565857
9,84,141619804882596,-3.476173162460327,5.081757068634033,11.419147491455078,141619804882596,-2.92069935798645,0.21441370248794556,0.6670648455619812
9,84,141619813964505,-3.1106693744659424,5.1906304359436035,11.962318420410156,141619813964505,-2.6170995235443115,0.23105977475643158,0.7947356700897217
9,84,141619823041898,-2.7254250049591064,5.245665550231934,11.887542724609375,141619823041898,-2.2846360206604004,0.20601430535316467,0.8837692737579346
9,84,141619832140408,-2.482553482055664,5.25762939453125,11.422139167785645,141619832140408,-1.9978348016738892,0.1466076523065567,0.9410378932952881
9,84,141619841222500,-2.4777679443359375,5.276174068450928,11.208579063415527,141619841222500,-1.788002610206604,0.12263119965791702,0.9567676782608032
9,84,141619850304714,-2.6673989295959473,5.410171985626221,11.036295890808105,141619850304714,-1.6467399597167969,0.152105450630188,0.9440922141075134
9,84,141619859388454,-2.8660032749176025,5.514857769012451,10.712666511535645,141619859388454,-1.5554156303405762,0.18616119027137756,0.9373727440834045
9,84,141619868473476,-2.946761131286621,5.562714576721191,10.584053039550781,141619868473476,-1.4900530576705933,0.19104810059070587,0.9500481486320496
9,84,141619877558009,-2.9892337322235107,5.563312530517578,10.692926406860352,141619877558009,-1.4246904850006104,0.19135354459285736,0.9779952764511108
9,84,141619886642300,-2.8803603649139404,5.5483574867248535,10.817353248596191,141619886642300,-1.3396275043487549,0.17776179313659668,1.0149526596069336
9,84,141619895722317,-2.799602508544922,5.5483574867248535,10.85563850402832,141619895722317,-1.238223910331726,0.1339322030544281,1.051146388053894
9,84,141619904802761,-2.7667012214660645,5.471786975860596,10.722238540649414,141619904802761,-1.1383473873138428,0.03848451003432274,1.0963504314422607
9,84,141619913888941,-2.696112871170044,5.285745143890381,10.703694343566895,141619913888941,-1.0603092908859253,-0.07162395119667053,1.1519391536712646
9,84,141619922969874,-2.4496521949768066,5.103890895843506,10.747363090515137,141619922969874,-1.0010554790496826,-0.16829337179660797,1.1995866298675537
9,84,141619932057277,-2.145763635635376,4.993222713470459,10.791031837463379,141619932057277,-0.9387471675872803,-0.26893341541290283,1.2250902652740479
9,84,141619941141932,-1.970489501953125,4.925625324249268,10.829915046691895,141619941141932,-0.8608618378639221,-0.38148534297943115,1.2360857725143433
9,84,141619950228724,-1.8945173025131226,4.911866664886475,11.091331481933594,141619950228724,-0.773202657699585,-0.4502076804637909,1.249372124671936
9,84,141619959309107,-1.7994025945663452,4.97348165512085,11.272587776184082,141619959309107,-0.6800457239151001,-0.44654250144958496,1.2628111839294434
9,84,141619968395167,-1.6037893295288086,5.186442852020264,11.125429153442383,141619968395167,-0.5832235813140869,-0.4050036668777466,1.2672399282455444
9,84,141619977478907,-1.4225330352783203,5.313262462615967,10.869397163391113,141619977478907,-0.4954117238521576,-0.3776674270629883,1.2631165981292725
9,84,141619986563378,-1.1515458822250366,5.349753379821777,10.755738258361816,141619986563378,-0.4303545653820038,-0.3631593883037567,1.2628111839294434
9,84,141619995646021,-0.7812566161155701,5.405386447906494,10.913663864135742,141619995646021,-0.39324450492858887,-0.33276882767677307,1.2652546167373657
9,84,141620004725855,-0.3966103494167328,5.423332691192627,11.12901782989502,141620004725855,-0.3677408695220947,-0.2834414839744568,1.273043155670166
9,84,141620013807947,-0.05503492057323456,5.365306377410889,11.453245162963867,141620013807947,-0.3381139039993286,-0.22800545394420624,1.2883148193359375
9,84,141620022886621,0.2913261651992798,5.316253662109375,11.61117172241211,141620022886621,-0.29535335302352905,-0.1941024363040924,1.3040446043014526
9,84,141620031981042,0.6041877269744873,5.272584915161133,11.868998527526855,141620031981042,-0.23839016258716583,-0.1765400618314743,1.312138557434082
9,84,141620041068018,0.9080761671066284,5.304887771606445,12.178869247436523,141620041068018,-0.16340644657611847,-0.14828753471374512,1.309084177017212
9,84,141620050146753,1.212562918663025,5.460421085357666,12.346366882324219,141620050146753,-0.06444628536701202,-0.12003502249717712,1.2973250150680542
9,84,141620059235802,1.5074782371520996,5.611767292022705,12.470793724060059,141620059235802,0.055283304303884506,-0.10552696883678436,1.2739595174789429
9,84,141620068316613,1.8400806188583374,5.720042705535889,12.699906349182129,141620068316613,0.18707747757434845,-0.06108652427792549,1.2450960874557495
9,84,141620077388085,2.1397817134857178,5.785246849060059,12.7818603515625,141620077388085,0.32849279046058655,0.03298672288656235,1.2081387042999268
9,84,141620086484215,2.424527645111084,5.736194133758545,12.725628852844238,141620086484215,0.45494189858436584,0.168751522898674,1.165378212928772
9,84,141620095568200,2.6428725719451904,5.625525951385498,12.697513580322266,141620095568200,0.551916778087616,0.3376557528972626,1.1136072874069214
9,84,141620104645836,2.8325037956237793,5.548955917358398,12.66999626159668,141620104645836,0.619111955165863,0.527634859085083,1.0557278394699097
9,84,141620113729638,3.064607620239258,5.405386447906494,12.736994743347168,141620113729638,0.7214318513870239,0.7228062748908997,0.9961684942245483
9,84,141620122811791,3.3786656856536865,5.3934221267700195,12.491132736206055,141620122811791,0.7797694802284241,0.9028588533401489,0.9402743577957153
9,84,141620131889488,3.7645082473754883,5.566901683807373,12.054442405700684,141620131889488,0.7857254147529602,0.9783006906509399,0.877966046333313
9,84,141620140984031,3.8590247631073,5.532804012298584,11.897712707519531,141620140984031,0.780380368232727,0.9305005073547363,0.8385652899742126
9,84,141620150068382,4.019343852996826,5.270790100097656,12.193225860595703,141620150068382,0.7994698882102966,0.8588765263557434,0.8023715019226074
9,84,141620159154564,4.328616142272949,5.402993679046631,12.43669605255127,141620159154564,0.8802568316459656,0.8414669036865234,0.7576256394386292
9,84,141620168240074,4.600201606750488,5.630311489105225,12.475579261779785,141620168240074,1.007622241973877,0.8880453705787659,0.7018841505050659
9,84,141620177322471,4.676173686981201,5.586642742156982,12.214162826538086,141620177322471,1.1343767642974854,0.9851729273796082,0.6704245805740356
9,84,141620186405661,4.861617565155029,5.556134223937988,11.648859024047852,141620186405661,1.259145975112915,1.0766500234603882,0.656680166721344
9,84,141620195482932,5.075775146484375,5.496912002563477,11.055438995361328,141620195482932,1.3732250928878784,1.1249083280563354,0.637132465839386
9,84,141620204566672,5.380859851837158,5.532206058502197,10.433304786682129,141620204566672,1.463938593864441,1.1398745775222778,0.6052147150039673
9,84,141620213651022,5.670989513397217,5.61954402923584,9.915857315063477,141620213651022,1.5241087675094604,1.1352930068969727,0.5560401082038879
9,84,141620222734518,5.824130535125732,5.74696159362793,9.531210899353027,141620222734518,1.53525710105896,1.1410962343215942,0.4853324294090271
9,84,141620231823081,5.796612739562988,5.9647088050842285,9.136395454406738,141620231823081,1.5076154470443726,1.1609493494033813,0.3949243724346161
9,84,141620240905356,5.6931233406066895,6.150152206420898,8.788837432861328,141620240905356,1.4682146310806274,1.1762210130691528,0.29367345571517944
9,84,141620249989462,5.569892883300781,6.283552169799805,8.531609535217285,141620249989462,1.4256067276000977,1.1933252811431885,0.18631389737129211
9,84,141620259074972,5.3802618980407715,6.279364585876465,8.535796165466309,141620259074972,1.3828462362289429,1.23394775390625,0.07467827945947647
9,84,141620268158347,5.256433010101318,6.247061729431152,8.754141807556152,141620268158347,1.3564262390136719,1.3092368841171265,-0.036651913076639175
9,84,141620277239645,5.0811591148376465,6.300302028656006,8.606385231018066,141620277239645,1.3807082176208496,1.3518447875976562,-0.14248432219028473
9,84,141620286327596,4.777270317077637,6.300900459289551,8.167900085449219,141620286327596,1.4451544284820557,1.3095424175262451,-0.21624629199504852
9,84,141620295403279,4.715655326843262,6.247660160064697,7.787441253662109,141620295403279,1.5399912595748901,1.2229522466659546,-0.2684752643108368
9,84,141620304480488,4.811367988586426,6.260222434997559,7.250252723693848,141620304480488,1.6490306854248047,1.1354458332061768,-0.3378084897994995
9,84,141620313572957,4.806582450866699,6.2398834228515625,6.594020843505859,141620313572957,1.741729497909546,1.0873401165008545,-0.4285219609737396
9,84,141620322655660,4.622334957122803,6.168098449707031,5.770890235900879,141620322655660,1.782352089881897,1.0986411571502686,-0.5166392922401428
9,84,141620331744771,4.451846599578857,6.238687038421631,5.176273345947266,141620331744771,1.7307339906692505,1.1861475706100464,-0.5954409241676331
9,84,141620340825765,4.191627025604248,6.372086524963379,4.537988185882568,141620340825765,1.6117680072784424,1.2898420095443726,-0.6760751008987427
9,84,141620349910603,3.655036687850952,6.321238994598389,4.098905086517334,141620349910603,1.4732542037963867,1.3516920804977417,-0.737772524356842
9,84,141620358996846,2.9856443405151367,6.347560405731201,3.868596076965332,141620358996846,1.337031364440918,1.3507757186889648,-0.7603744864463806
9,84,141620368067524,2.3401806354522705,6.474380016326904,3.7956149578094482,141620368067524,1.2370021343231201,1.29381263256073,-0.7480044960975647
9,84,141620377164448,1.8658034801483154,6.61914587020874,3.565903902053833,141620377164448,1.1995866298675537,1.1582005023956299,-0.7081455588340759
9,84,141620386243793,1.495514154434204,6.677769660949707,3.483949661254883,141620386243793,1.2173017263412476,0.9575312733650208,-0.6565274000167847
9,84,141620395326008,1.153340458869934,6.660421848297119,3.4444682598114014,141620395326008,1.2592986822128296,0.7622070908546448,-0.599564254283905
9,84,141620404402180,0.9068797826766968,6.699305057525635,3.3296127319335938,141620404402180,1.3084733486175537,0.5966626405715942,-0.5396994352340698
9,84,141620413494954,0.836291491985321,6.76510763168335,2.939582586288452,141620413494954,1.3655892610549927,0.4564690589904785,-0.48258355259895325
9,84,141620422569660,0.8129615187644958,6.816553592681885,2.3401806354522705,141620422569660,1.4019356966018677,0.3220787048339844,-0.43737950921058655
9,84,141620431666156,0.7471588850021362,6.81595516204834,1.8317056894302368,141620431666156,1.3982704877853394,0.21853704750537872,-0.4005748927593231
9,84,141620440736346,0.6526423692703247,6.867401123046875,1.3130614757537842,141620440736346,1.3495540618896484,0.14019356667995453,-0.3677408695220947
9,84,141620449831745,0.46779683232307434,6.957729816436768,0.7890332937240601,141620449831745,1.2693779468536377,0.07192938029766083,-0.33246341347694397
9,84,141620458916828,0.25004997849464417,7.019345283508301,0.355932354927063,141620458916828,1.175152063369751,0.014355333521962166,-0.2744311988353729
9,84,141620467993304,0.11306086927652359,7.05763053894043,-0.0011964113218709826,141620467993304,1.0784826278686523,-0.031001411378383636,-0.20005837082862854
9,84,141620477086077,0.05623133108019829,7.176074981689453,-0.2153540402650833,141620477086077,0.9822713136672974,-0.05207626149058342,-0.12767083942890167
9,84,141620486169390,-0.009571290574967861,7.290332317352295,-0.47258245944976807,141620486169390,0.8813258409500122,-0.05146539583802223,-0.07299839705228806
9,84,141620495252643,-0.13280165195465088,7.299903869628906,-0.6675975322723389,141620495252643,0.759305477142334,-0.03726277872920036,-0.03084869496524334
9,84,141620504336504,-0.2225325107574463,7.438089370727539,-0.8201399445533752,141620504336504,0.6050620079040527,-0.029168816283345222,-0.005650503560900688
9,84,141620513420244,-0.25004997849464417,7.733004570007324,-0.8392825126647949,141620513420244,0.4375322461128235,-0.03390302136540413,0.002138028386980295
9,84,141620522502519,-0.04546362906694412,7.7700934410095215,-0.6628118753433228,141620522502519,0.2730567753314972,-0.03481931984424591,-0.012980886735022068
9,84,141620531585711,-0.01196411345154047,7.95553731918335,-0.582054078578949,141620531585711,0.10567969083786011,-0.047800205647945404,-0.04917465150356293
9,84,141620540670061,-0.30568310618400574,8.157132148742676,-0.41216370463371277,141620540670061,-0.04535674303770065,-0.08643743395805359,-0.08781187981367111
9,84,141620549756487,-0.5856433510780334,8.316255569458008,-0.09451649338006973,141620549756487,-0.16050484776496887,-0.1437060534954071,-0.12140946835279465
9,84,141620558839799,-0.7663014531135559,8.417949676513672,0.23330020904541016,141620558839799,-0.2347249686717987,-0.2148718535900116,-0.14767667651176453
9,84,141620567922991,-1.0085747241973877,8.476573944091797,0.5557330846786499,141620567922991,-0.26939156651496887,-0.28069257736206055,-0.154396191239357
9,84,141620577006242,-1.1700903177261353,8.544769287109375,0.859621524810791,141620577006242,-0.29138273000717163,-0.32100969552993774,-0.14569136500358582
9,84,141620586090409,-1.2556337118148804,8.574081420898438,1.1443674564361572,141620586090409,-0.31551191210746765,-0.34147366881370544,-0.13087788224220276
9,84,141620595173662,-1.3226326704025269,8.569893836975098,1.353141188621521,141620595173662,-0.35445454716682434,-0.36163222789764404,-0.11163562536239624
9,84,141620604257341,-1.3938192129135132,8.560921669006348,1.4291132688522339,141620604257341,-0.4075998365879059,-0.40393465757369995,-0.08567385375499725
9,84,141620613341691,-1.4464613199234009,8.537590980529785,1.5619150400161743,141620613341691,-0.48288896679878235,-0.46639561653137207,-0.057879481464624405
9,84,141620622424638,-1.475175142288208,8.529216766357422,1.8376877307891846,141620622424638,-0.5974262356758118,-0.5224425196647644,-0.038026362657547
9,84,141620631508867,-1.4991034269332886,8.606385231018066,2.379662036895752,141620631508867,-0.7509061098098755,-0.5564982295036316,-0.04734205827116966
9,84,141620640583939,-1.622931957244873,8.684749603271484,3.173480987548828,141620640583939,-0.917061448097229,-0.5520694851875305,-0.08964447677135468
9,84,141620649676407,-1.8370895385742188,8.773283958435059,4.218546390533447,141620649676407,-1.0645854473114014,-0.498924195766449,-0.14538592100143433
9,84,141620658762954,-1.994417667388916,8.809176445007324,5.154737949371338,141620658762954,-1.161560297012329,-0.4236350357532501,-0.1963931769132614
9,84,141620667839431,-2.0380866527557373,8.792427062988281,6.077171325683594,141620667839431,-1.1902709007263184,-0.36224308609962463,-0.23090706765651703
9,84,141620676927323,-2.043470621109009,8.837292671203613,7.033103942871094,141620676927323,-1.1646145582199097,-0.2926044464111328,-0.2477058619260788
9,84,141620686008560,-2.02492618560791,8.915059089660645,7.841279983520508,141620686008560,-1.092837929725647,-0.22388210892677307,-0.2541199326515198
9,84,141620695095047,-2.025524377822876,8.911469459533691,8.444869041442871,141620695095047,-0.9802860021591187,-0.16600263118743896,-0.2554943859577179
9,84,141620704181656,-2.0644078254699707,8.8648099899292,8.778069496154785,141620704181656,-0.8310821652412415,-0.15256360173225403,-0.24953845143318176
9,84,141620713262528,-2.073979139328003,8.851051330566406,8.962915420532227,141620713262528,-0.6520986557006836,-0.19013181328773499,-0.2298380434513092
9,84,141620722346389,-2.0165512561798096,8.912666320800781,9.08674430847168,141620722346389,-0.455705463886261,-0.24297164380550385,-0.19868391752243042
9,84,141620731430556,-1.8837496042251587,8.921639442443848,9.030512809753418,141620731430556,-0.26511552929878235,-0.27840182185173035,-0.15943582355976105
9,84,141620740513565,-1.7407784461975098,8.886942863464355,8.807381629943848,141620740513565,-0.0959058403968811,-0.2840523421764374,-0.11774427443742752
9,84,141620749597000,-1.526620864868164,8.909076690673828,8.461020469665527,141620749597000,0.04184427112340927,-0.2652682363986969,-0.08261952549219131
9,84,141620758681899,-1.3124631643295288,8.940781593322754,7.981259822845459,141620758681899,0.14828753471374512,-0.2399173229932785,-0.06001751124858856
9,84,141620767752517,-1.2077772617340088,8.872586250305176,7.51585578918457,141620767752517,0.22098049521446228,-0.21563543379306793,-0.04382958263158798
9,84,141620776848403,-1.098305583000183,8.818747520446777,7.059424877166748,141620776848403,0.27229318022727966,-0.20723603665828705,-0.027641652151942253
9,84,141620785932204,-0.9846464991569519,8.764909744262695,6.736393928527832,141620785932204,0.3121521472930908,-0.204487144947052,-0.012675453908741474
9,84,141620795016981,-0.8895317912101746,8.706883430480957,6.437291145324707,141620795016981,0.3419318199157715,-0.2021963894367218,0.0029016099870204926
9,84,141620804100904,-0.794417142868042,8.639286041259766,6.119045734405518,141620804100904,0.3695734739303589,-0.20204368233680725,0.019547687843441963
9,84,141620813183607,-0.7136593461036682,8.548358917236328,5.91505765914917,141620813183607,0.39553526043891907,-0.19853121042251587,0.03588833287358284
9,84,141620822267408,-0.5904290080070496,8.447261810302734,5.691926956176758,141620822267408,0.41462478041648865,-0.18035796284675598,0.051312681287527084
9,84,141620831335829,-0.48574298620224,8.350951194763184,5.492724418640137,141620831335829,0.432034432888031,-0.16951510310173035,0.058948494493961334
9,84,141620840434034,-0.47198426723480225,8.222336769104004,5.31685209274292,141620840434034,0.44913867115974426,-0.15500704944133759,0.06750060617923737
9,84,141620849521619,-0.4576273262500763,8.150551795959473,5.045864582061768,141620849521619,0.4651738703250885,-0.13668109476566315,0.08032877743244171
9,84,141620858604506,-0.39601215720176697,8.068597793579102,4.803591251373291,141620858604506,0.4677700698375702,-0.12400564551353455,0.09285151958465576
9,84,141620867682446,-0.3487538993358612,7.987242221832275,4.67078971862793,141620867682446,0.4535674452781677,-0.1033889427781105,0.09758572280406952
9,84,141620876770581,-0.3678964674472809,7.896913051605225,4.494917392730713,141620876770581,0.4268420934677124,-0.08368854224681854,0.10048733651638031
9,84,141620885850598,-0.41096729040145874,7.825128078460693,4.295116424560547,141620885850598,0.38835757970809937,-0.0679587572813034,0.10537425428628922
9,84,141620894937512,-0.4103690981864929,7.843672752380371,4.180859565734863,141620894937512,0.33276882767677307,-0.0503963828086853,0.1088867336511612
9,84,141620904025281,-0.35832518339157104,7.895716667175293,4.11924409866333,141620904025281,0.2695443034172058,-0.025656340643763542,0.10766500234603882
9,84,141620913092603,-0.3487538993358612,7.886145114898682,4.11924409866333,141620913092603,0.21059578657150269,-0.01618792861700058,0.10033461451530457
9,84,141620922187390,-0.3966103494167328,7.891529083251953,4.285545349121094,141620922187390,0.16508632898330688,-0.01924225501716137,0.09193521738052368
9,84,141620931272596,-0.44386860728263855,7.9489569664001465,4.4135613441467285,141620931272596,0.13729196786880493,-0.03726277872920036,0.08399397134780884
9,84,141620940357983,-0.4863412082195282,7.968697547912598,4.546961307525635,141620940357983,0.13439035415649414,-0.05513058975338936,0.07742717117071152
9,84,141620949440319,-0.5437689423561096,7.997411251068115,4.660620212554932,141620949440319,0.15241087973117828,-0.09728029370307922,0.07498370856046677
9,84,141620958523693,-0.5335994362831116,8.069195747375488,4.71744966506958,141620958523693,0.18188512325286865,-0.1258382350206375,0.07742717117071152
9,84,141620967606944,-0.5288137793540955,8.111668586730957,4.71744966506958,141620967606944,0.21303924918174744,-0.1466076523065567,0.078343465924263
9,84,141620976691540,-0.5623133182525635,8.135597229003906,4.6749773025512695,141620976691540,0.23151792585849762,-0.16539175808429718,0.07864890247583389
9,84,141620985772228,-0.623330295085907,8.188239097595215,4.6271209716796875,141620985772228,0.24113905429840088,-0.18967366218566895,0.08429940044879913
9,84,141620994858898,-0.6801598072052002,8.24566650390625,4.693521499633789,141620994858898,0.24068090319633484,-0.20983220636844635,0.09392052888870239
9,84,141621003945690,-0.7232306599617004,8.279764175415039,4.95493745803833,141621003945690,0.24465152621269226,-0.20845776796340942,0.10354165732860565
9,84,141621013024485,-0.7232306599617004,8.376075744628906,5.401797294616699,141621013024485,0.27458393573760986,-0.16172657907009125,0.11850785464048386
9,84,141621022110728,-0.6047859191894531,8.428119659423828,5.74397087097168,141621022110728,0.34055736660957336,-0.06414084881544113,0.14049901068210602
9,84,141621031193980,-0.4049852192401886,8.437092781066895,5.787639617919922,141621031193980,0.4288274049758911,0.07590000331401825,0.1560760736465454
9,84,141621040277354,-0.25722843408584595,8.521439552307129,5.607579708099365,141621040277354,0.5254968404769897,0.23594669997692108,0.16172657907009125
9,84,141621049361705,-0.3565305769443512,8.568697929382324,5.150550842285156,141621049361705,0.7411322593688965,0.3718642294406891,0.16142113506793976
9,84,141621058432506,-0.5324030518531799,8.38684368133545,4.12761926651001,141621058432506,0.7941248416900635,0.3911064863204956,0.14355333149433136
9,84,141621067528575,-0.7310073375701904,8.423334121704102,3.1238300800323486,141621067528575,0.6690501570701599,0.32986724376678467,0.12400564551353455
9,84,141621076612865,-0.9020941257476807,8.280961036682129,2.8049862384796143,141621076612865,0.4576907753944397,0.2154827117919922,0.1319468915462494
9,84,141621085696726,-0.8123632669448853,8.181060791015625,2.9240293502807617,141621085696726,0.24190263450145721,0.06414084881544113,0.13744467496871948
9,84,141621094780588,-0.7166503667831421,8.49033260345459,3.3708889484405518,141621094780588,0.07024950534105301,-0.09025534242391586,0.1371392458677292
9,84,141621103863962,-0.6837490797042847,8.511270523071289,4.326821327209473,141621103863962,0.006872233934700489,-0.17043140530586243,0.1485929638147354
9,84,141621112951975,-0.4707878530025482,8.459226608276367,4.9980082511901855,141621112951975,0.07925976812839508,-0.19532416760921478,0.1547016203403473
9,85,141622048570628,-2.3784656524658203,8.291130065917969,18.172290802001953,141622053112471,2.0616703033447266,-0.045204028487205505,-0.168751522898674
9,85,141622057659821,-1.8951154947280884,8.548956871032715,14.978471755981445,141622062202790,2.3493876457214355,-0.060475658625364304,-0.24373523890972137
9,85,141622066743561,-1.6360924243927002,8.546564102172852,12.126825332641602,141622071285397,2.592817544937134,-0.0064140851609408855,-0.3474296033382416
9,85,141622075818477,-1.6767704486846924,8.389236450195312,9.56351375579834,141622080357418,2.725375175476074,0.09957103431224823,-0.4378376603126526
9,85,141622084904599,-1.8041882514953613,8.13260555267334,7.124031066894531,141622089453244,2.825557231903076,0.1768454909324646,-0.4847215712070465
9,85,141622093991512,-2.0159530639648438,7.904689788818359,4.470390796661377,141622098535397,2.9304733276367188,0.15714508295059204,-0.4781547784805298
9,85,141622103066464,-2.2707886695861816,7.747959613800049,1.688734531402588,141622107622922,2.981175184249878,0.07498370856046677,-0.42791110277175903
9,85,141622112161740,-2.482553482055664,7.60080099105835,-0.9655039310455322,141622116708613,2.9045114517211914,0.015577063895761967,-0.35674530267715454
9,85,141622121244258,-2.562114953994751,7.390830993652344,-3.6945180892944336,141622125783504,2.718655824661255,-0.06475171446800232,-0.2716823220252991
9,85,141622130327327,-2.5746772289276123,7.1856465339660645,-6.476174354553223,141622134866634,2.4194846153259277,-0.19532416760921478,-0.1644754707813263
9,85,141622139412837,-2.568096876144409,7.046862602233887,-8.967103004455566,141622143951717,1.9741637706756592,-0.36880987882614136,-0.044135015457868576
9,85,141622148497675,-2.5154547691345215,6.714858531951904,-10.887941360473633,141622153036189,1.3851369619369507,-0.5618433356285095,0.08506298810243607
9,85,141622157567439,-2.3060827255249023,6.464210510253906,-11.928220748901367,141622162119197,0.7153232097625732,-0.7278459668159485,0.2070833146572113
9,85,141622166663875,-1.9555343389511108,6.2871413230896,-11.784651756286621,141622171208736,0.028099801391363144,-0.7687739133834839,0.31093040108680725
9,85,141622175743708,-1.2592228651046753,5.876173973083496,-11.097312927246094,141622180290339,-0.6901249885559082,-0.7124215960502625,0.35964691638946533
9,85,141622184826229,-0.7848458290100098,5.822933673858643,-10.316056251525879,141622189373408,-1.4033101797103882,-0.6328563690185547,0.34804046154022217
9,85,141622193909968,-0.5593222975730896,5.665007591247559,-7.94297456741333,141622198460199,-2.0619757175445557,-0.4239404797554016,0.2961169183254242
9,85,141622203002863,-0.48873403668403625,5.063212871551514,-4.5236310958862305,141622207544001,-2.7033841609954834,-0.08307767659425735,0.21731531620025635
9,85,141622212081720,-0.7746763229370117,4.439882278442383,-0.649053156375885,141622216613458,-3.3631186485290527,0.28955012559890747,0.1241583600640297
9,85,141622221165338,-0.9475577473640442,3.689732551574707,4.095914363861084,141622225704463,-3.9709296226501465,0.5737552046775818,0.05604688450694084
9,85,141622230251887,-1.1778669357299805,3.242872953414917,10.690533638000488,141622234789240,-4.36096715927124,0.835969090461731,0.013897184282541275
9,85,141622239338312,-1.389631748199463,3.0454649925231934,18.040685653686523,141622243871943,-4.39303731918335,0.9709703326225281,0.01038470957428217
9,85,141622248419611,-1.0767701864242554,3.0281169414520264,24.217758178710938,141622252960932,-3.8625009059906006,0.6501133441925049,0.07360926270484924
9,85,141622257503352,-0.09212367236614227,3.348755359649658,29.821748733520508,141622262045709,-2.7088818550109863,-0.00931569468230009,0.14095716178417206
9,85,141622266586480,1.1240284442901611,4.473381996154785,33.804603576660156,141622271132073,-1.1275044679641724,-0.6517932415008545,0.13790282607078552
9,85,141622275663873,1.695314884185791,6.212964057922363,34.39024353027344,141622280210931,0.5742133259773254,-1.0213667154312134,0.08414668589830399
9,85,141622284746880,1.200000524520874,7.706085205078125,30.807592391967773,141622289296930,2.0364720821380615,-1.1184942722320557,0.04108068719506264
9,85,141622293831720,0.6173482537269592,8.081758499145508,24.881168365478516,141622298381403,3.028211832046509,-1.0320568084716797,0.005345070734620094
9,85,141622302916925,0.6999006271362305,8.376673698425293,18.400806427001953,141622307452507,3.5469889640808105,-0.8903360962867737,-0.06582073122262955
9,85,141622312004083,0.9822536706924438,8.806185722351074,12.628719329833984,141622316548516,3.6227364540100098,-0.6786713004112244,-0.17302757501602173
9,85,141622321093255,1.0534402132034302,9.148359298706055,8.154739379882812,141622325619439,3.3979380130767822,-0.3917173445224762,-0.30711251497268677
9,85,141622330170708,0.8476574420928955,9.089137077331543,4.497908592224121,141622334709526,3.11006760597229,-0.19135354459285736,-0.42668938636779785
9,85,141622339257317,0.15553347766399384,8.86780071258545,1.4715858697891235,141622343794060,2.9265027046203613,-0.16111570596694946,-0.4847215712070465
9,85,141622348342399,-0.7154539823532104,8.994620323181152,-1.1509476900100708,141622352879143,2.8608345985412598,-0.25793784856796265,-0.47189339995384216
9,85,141622357411797,-1.435693621635437,8.94556713104248,-3.6921253204345703,141622361966851,2.847701072692871,-0.39125919342041016,-0.4060726761817932
9,85,141622366503777,-1.8664016723632812,8.632705688476562,-6.375077724456787,141622371039360,2.796846628189087,-0.4812090992927551,-0.3101668357849121
9,85,141622375585136,-2.0267207622528076,8.25703239440918,-9.184849739074707,141622380132072,2.615114212036133,-0.47510045766830444,-0.20601430535316467
9,85,141622384672356,-2.211566209793091,7.767102241516113,-11.82891845703125,141622389217339,2.2452352046966553,-0.37858372926712036,-0.09957103431224823
9,85,141622393753410,-2.3156540393829346,7.2921271324157715,-14.158929824829102,141622398303764,1.704466700553894,-0.2373211532831192,0.0019853119738399982
9,85,141622402838737,-2.3874387741088867,6.8279194831848145,-15.608980178833008,141622407374687,1.043968677520752,-0.06734789162874222,0.10659598559141159
9,85,141622411924003,-2.379662036895752,6.0987067222595215,-16.440486907958984,141622416462821,0.2678644061088562,0.10567969083786011,0.23976461589336395
9,85,141622421011100,-2.0243279933929443,5.691926956176758,-16.667804718017578,141622425546745,-0.6145304441452026,0.2506074607372284,0.35323283076286316
9,85,141622430093070,-1.5092729330062866,5.239683151245117,-15.842878341674805,141622434632072,-1.510364294052124,0.365755558013916,0.4331034719944
9,85,141622439176932,-1.2035897970199585,4.781457901000977,-13.654642105102539,141622443715140,-2.341904640197754,0.4812090992927551,0.4833471179008484
9,85,141622448262076,-1.074975609779358,4.335196495056152,-10.601400375366211,141622452803459,-3.0581440925598145,0.5911648273468018,0.503047525882721
9,85,141622457344352,-1.01814603805542,3.8195431232452393,-6.9068827629089355,141622461886527,-3.6691620349884033,0.6589708924293518,0.499382346868515
9,85,141622466424979,-0.9583254456520081,2.9766714572906494,-2.6362924575805664,141622470971793,-4.170988082885742,0.6017022728919983,0.483957976102829
9,85,141622475506217,-1.8161523342132568,2.316850423812866,3.0957143306732178,141622480051994,-4.547128200531006,0.5453499555587769,0.49128836393356323
9,85,141622484590505,-2.227717876434326,1.5900306701660156,9.44746208190918,141622489138784,-4.787045478820801,0.36789360642433167,0.5441282391548157
9,85,141622493675405,-1.8083757162094116,0.7968099117279053,15.463616371154785,141622498221060,-4.816214084625244,-0.08002334833145142,0.6536257863044739
9,85,141622502751150,-0.6526423692703247,0.24945175647735596,22.41895294189453,141622507308951,-4.569424629211426,-0.7654141783714294,0.7661777138710022
9,85,141622511846243,1.7599210739135742,0.5670989751815796,29.981470108032227,141622516389761,-3.8426477909088135,-1.5276212692260742,0.7854200005531311
9,85,141622520929495,3.678964853286743,2.303689956665039,36.904502868652344,141622525468313,-2.5783095359802246,-1.9624046087265015,0.7183775305747986
9,85,141622530014334,4.433900356292725,4.587040901184082,41.094337463378906,141622534551992,-0.9430232048034668,-1.8990273475646973,0.5948300361633301
9,85,141622539096914,4.3788652420043945,6.427719593048096,40.95016860961914,141622543634390,0.7307475209236145,-1.409724235534668,0.43967026472091675
9,85,141622548171316,3.6945180892944336,7.908876895904541,35.93122482299805,141622552726919,2.127490997314453,-0.7148650288581848,0.26251932978630066
9,85,141622557267140,3.5336008071899414,8.960522651672363,29.00699234008789,141622561811695,3.1218268871307373,-0.038026362657547,0.039095375686883926
9,85,141622566348256,3.3176486492156982,9.025727272033691,20.752351760864258,141622570891774,3.6216673851013184,0.3865249752998352,-0.1514945775270462
9,85,141622575428578,3.2961132526397705,9.258428573608398,13.805390357971191,141622579976674,3.7084102630615234,0.6495024561882019,-0.34284812211990356
9,85,141622584512319,3.015554666519165,9.468399047851562,8.907281875610352,141622589060903,3.5465309619903564,0.8967501521110535,-0.5183191895484924
9,85,141622593595815,2.321038007736206,9.521639823913574,5.343770980834961,141622598142507,3.352275848388672,1.0671815872192383,-0.6382014751434326
9,85,141622602672292,1.2299108505249023,9.378668785095215,2.5776681900024414,141622607229115,3.3237178325653076,1.067639708518982,-0.6789767146110535
9,85,141622611767567,-0.03170489892363548,9.241081237792969,-0.18843477964401245,141622616310842,3.4762814044952393,0.9010262489318848,-0.6322455406188965
9,85,141622620851552,-1.1264212131500244,9.078369140625,-3.187239646911621,141622625391164,3.637549877166748,0.7331910133361816,-0.4983133375644684
9,85,141622629935780,-1.9471594095230103,8.5704927444458,-6.802794933319092,141622634473866,3.6587774753570557,0.5684100985527039,-0.2883284091949463
9,85,141622639019581,-2.14516544342041,7.977670669555664,-10.959127426147461,141622643555958,3.45871901512146,0.3556762933731079,-0.0555887371301651
9,85,141622648098316,-2.1158533096313477,7.252645492553711,-14.315061569213867,141622652647816,3.0170633792877197,0.16630806028842926,0.16233743727207184
9,85,141622657188892,-1.9884356260299683,6.500700950622559,-16.606189727783203,141622661731006,2.3912320137023926,-0.01664607785642147,0.3419318199157715
9,85,141622666266041,-1.9184455871582031,5.918646812438965,-17.356937408447266,141622670813221,1.6751452684402466,-0.11056660860776901,0.5019785165786743
9,85,141622675348927,-2.3330020904541016,5.544169902801514,-17.586050033569336,141622679897999,0.831234872341156,-0.09392052888870239,0.6858489513397217
9,85,141622684433826,-2.6769702434539795,5.037489891052246,-17.254045486450195,141622688983265,-0.09392052888870239,-0.0959058403968811,0.8907942175865173
9,85,141622693517994,-2.599203586578369,4.517050743103027,-15.760326385498047,141622698068226,-0.9395107626914978,-0.23228150606155396,1.0827586650848389
9,85,141622702606006,-1.6480566263198853,4.0319061279296875,-13.788640022277832,141622707150744,-1.644449234008789,-0.4758640229701996,1.1933252811431885
9,85,141622711688647,-1.262213945388794,3.7561333179473877,-10.506884574890137,141622716224963,-2.2650883197784424,-0.5960517525672913,1.2305880784988403
9,85,141622720759020,-0.9529415965080261,3.6299118995666504,-6.49770975112915,141622725307849,-2.8238773345947266,-0.5196936130523682,1.2151637077331543
9,85,141622729857470,-0.7010970115661621,3.376272678375244,-2.060220241546631,141622734398730,-3.3313536643981934,-0.22876903414726257,1.162629246711731
9,85,141622738942431,-0.16031911969184875,3.160918712615967,3.376272678375244,141622743480579,-3.7669005393981934,0.2580905556678772,1.0473284721374512
9,85,141622748031360,0.4953143000602722,3.2416765689849854,9.283554077148438,141622752566882,-4.050036430358887,0.7916813492774963,0.8862127661705017
9,85,141622757105395,0.9475577473640442,3.5030922889709473,14.747564315795898,141622761650622,-4.09478235244751,1.1488847732543945,0.7312057018280029
9,85,141622766187976,1.1096714735031128,3.5401811599731445,19.43630027770996,141622770737353,-3.8921279907226562,1.1885910034179688,0.6311765313148499
9,85,141622775270983,1.5439687967300415,3.559921979904175,23.003997802734375,141622779817858,-3.486971616744995,0.8561276197433472,0.578489363193512
9,85,141622784348498,2.5633113384246826,3.861417531967163,26.158935546875,141622788903185,-2.897486686706543,0.2773328125476837,0.5074763298034668
9,85,141622793439378,4.164707660675049,4.677370071411133,28.854450225830078,141622797988390,-2.096336841583252,-0.2866485118865967,0.34605515003204346
9,85,141622802516710,5.391029357910156,6.556334018707275,29.803203582763672,141622807072130,-1.0235047340393066,-0.7816020846366882,0.10567969083786011
9,85,141622811610094,5.504090309143066,7.549953460693359,29.651260375976562,141622816152513,0.14782938361167908,-0.9799805879592896,-0.11255192011594772
9,85,141622820692308,4.421338081359863,8.415556907653809,27.269804000854492,141622825226122,1.1759155988693237,-0.8732318878173828,-0.2565633952617645
9,85,141622829779344,3.5300116539001465,9.201001167297363,23.101505279541016,141622834318224,1.962251901626587,-0.6290385127067566,-0.37262779474258423
9,85,141622838865160,3.1316065788269043,9.644869804382324,18.40260124206543,141622843401903,2.4685065746307373,-0.3706424832344055,-0.49098294973373413
9,85,141622847947618,2.9419753551483154,9.88833999633789,13.889139175415039,141622852489793,2.7206411361694336,-0.14676037430763245,-0.6133087277412415
9,85,141622857031601,2.812164783477783,9.981060981750488,10.118648529052734,141622861572556,2.7925703525543213,0.05406157299876213,-0.7267768979072571
9,85,141622866107224,2.5770699977874756,9.881160736083984,7.331608772277832,141622870644272,2.783560276031494,0.2718350291252136,-0.8260425329208374
9,85,141622875192918,2.060220241546631,9.622735977172852,5.19541597366333,141622879740769,2.8020389080047607,0.49235737323760986,-0.88987797498703
9,85,141622884279588,1.2484551668167114,9.289535522460938,3.3433713912963867,141622888825303,2.9249753952026367,0.7165449261665344,-0.8926268219947815
9,85,141622893362656,0.3326023519039154,9.066405296325684,1.4530415534973145,141622897910019,3.1196887493133545,1.0013608932495117,-0.8321511745452881
9,85,141622902449570,-0.46480581164360046,8.718249320983887,-1.0265209674835205,141622906994248,3.2678236961364746,1.3475687503814697,-0.6960809230804443
9,85,141622911532212,-0.7770691514015198,8.161319732666016,-4.278964996337891,141622916069260,3.271183490753174,1.6701055765151978,-0.5183191895484924
9,85,141622920603928,-0.2919243574142456,7.590631484985352,-7.705487251281738,141622925154587,3.0923526287078857,1.8684840202331543,-0.37858372926712036
9,85,141622929700485,0.40259242057800293,7.254439830780029,-9.985248565673828,141622934241439,2.741715908050537,2.0667097568511963,-0.30970868468284607
9,85,141622938784835,0.5694918036460876,6.9684977531433105,-12.200404167175293,141622943320663,2.2069034576416016,2.213775634765625,-0.24327708780765533
9,85,141622947858016,0.5605186820030212,6.632306098937988,-13.816756248474121,141622952411178,1.5468635559082031,2.174069404602051,-0.15729780495166779
9,85,141622956952926,0.7495517134666443,6.14417028427124,-14.648262023925781,141622961496506,0.7967209815979004,1.9559905529022217,-0.09239336848258972
9,85,141622966027450,0.7004988193511963,5.61116886138916,-15.03290843963623,141622970565231,-0.05314527451992035,1.5835154056549072,-0.06490442901849747
9,85,141622975115829,0.380458801984787,5.242076396942139,-14.824732780456543,141622979663681,-0.9946413636207581,1.0853548049926758,-0.06169738993048668
9,85,141622984201706,-0.17168502509593964,4.9124650955200195,-14.3599271774292,141622988747238,-2.035555601119995,0.44318273663520813,-0.05772676691412926
9,85,141622993282333,-0.8117650747299194,4.237689018249512,-13.363316535949707,141622997832259,-3.1899383068084717,-0.3376557528972626,-0.033597588539123535
9,85,141623002373092,-1.2263215780258179,3.0993034839630127,-10.553544044494629,141623006915022,-4.37104606628418,-1.1207849979400635,0.001679879380390048
9,85,141623011453657,-1.077966570854187,2.00518536567688,-5.731408596038818,141623015993330,-5.455026626586914,-1.7925840616226196,0.022907447069883347
9,85,141623020535201,-0.649053156375885,1.317248821258545,0.727418065071106,141623025068709,-6.275571346282959,-2.2786800861358643,0.029474247246980667
9,85,141623029622054,-0.23389841616153717,0.9176474809646606,8.37428092956543,141623034160262,-6.679658889770508,-2.4462099075317383,0.03375030308961868
9,85,141623038709456,0.2105683982372284,1.00259268283844,16.211374282836914,141623043246260,-6.570008277893066,-2.415055751800537,0.04489859566092491
9,85,141623047778182,1.1168500185012817,1.4063814878463745,24.748964309692383,141623052333785,-5.787184715270996,-2.0810651779174805,0.032070424407720566
9,85,141623056873702,1.8317056894302368,2.032104730606079,30.080772399902344,141623061419539,-4.434118270874023,-1.6849191188812256,0.04337143152952194
9,85,141623065951888,2.273181438446045,2.8594231605529785,33.35774230957031,141623070498762,-2.6613872051239014,-1.2463178634643555,-0.0019853119738399982
9,85,141623075035688,2.819941520690918,4.747958183288574,34.7748908996582,141623079584333,-0.7238753437995911,-0.6201809644699097,-0.1716531366109848
9,85,141623084121381,2.562713146209717,6.474380016326904,31.69652557373047,141623088667646,1.0494664907455444,-0.03680463135242462,-0.27351492643356323
9,85,141623093196149,2.0297117233276367,7.35314416885376,25.523042678833008,141623097752790,2.351067543029785,0.3588833212852478,-0.2451096773147583
9,85,141623102292158,2.012363910675049,7.525427341461182,19.04686737060547,141623106837873,3.109304189682007,0.6302602291107178,-0.23350323736667633
9,85,141623111371869,2.256431818008423,7.849654674530029,13.009178161621094,141623115911542,3.3927454948425293,0.8054258227348328,-0.28420504927635193
9,85,141623120447736,2.1481566429138184,8.248658180236816,8.044670104980469,141623124999616,3.307987928390503,0.9334021210670471,-0.3341432809829712
9,85,141623129544355,1.6959130764007568,8.442476272583008,4.077369689941406,141623134087079,2.956129550933838,1.0282388925552368,-0.3381139039993286
9,85,141623138628522,1.0869396924972534,8.772088050842285,0.9565308690071106,141623143170454,2.440253973007202,1.0435105562210083,-0.28985556960105896
9,85,141623147711835,0.6293123364448547,9.078967094421387,-1.194616675376892,141623152254194,1.8629863262176514,0.9550877809524536,-0.20723603665828705
9,85,141623156795758,0.2231307178735733,9.425328254699707,-2.527418851852417,141623161339887,1.2898420095443726,0.7469354867935181,-0.13118331134319305
9,85,141623165873823,-0.04247260093688965,9.525827407836914,-2.7517459392547607,141623170420392,0.765566885471344,0.5119050741195679,-0.06643159687519073
9,85,141623174956525,-0.15672987699508667,9.57487964630127,-2.2857437133789062,141623179505415,0.32268956303596497,0.29046642780303955,-0.015577063895761967
9,85,141623184041364,-0.17647066712379456,9.562317848205566,-1.4063814878463745,141623188589643,-0.028557950630784035,0.10903944820165634,0.029168816283345222
9,85,141623193126142,-0.2350948303937912,9.408578872680664,-0.17946170270442963,141623197675642,-0.2958115041255951,-0.00733038317412138,0.0679587572813034
9,85,141623202214216,-0.1423729509115219,9.154341697692871,1.2329018115997314,141623206759198,-0.4755585789680481,-0.05406157299876213,0.09346238523721695
9,85,141623211296186,0.13639089465141296,8.96530818939209,2.5986053943634033,141623215835981,-0.569631814956665,-0.05146539583802223,0.09682214260101318
9,85,141623220379804,0.45224347710609436,8.70508861541748,3.9499518871307373,141623224919233,-0.5963571667671204,-0.01664607785642147,0.07452555745840073
9,85,141623229465314,0.6496513485908508,8.335397720336914,5.034498691558838,141623234004255,-0.5630650520324707,0.020463986322283745,0.0354301854968071
9,85,141623238550825,0.7094719409942627,7.961519241333008,6.095715522766113,141623243093610,-0.4766276180744171,0.08017606288194656,-0.0013744467869400978
9,85,141623247633893,0.6885347366333008,7.6875410079956055,7.04207706451416,141623252175825,-0.3543018400669098,0.17760907113552094,-0.02886338345706463
9,85,141623256716230,0.6496513485908508,7.523034572601318,7.674380302429199,141623261258283,-0.21853704750537872,0.29306259751319885,-0.04764748737215996
9,85,141623265792829,0.4821537733078003,7.371688365936279,7.9351983070373535,141623270332502,-0.0936150997877121,0.39217549562454224,-0.052381694316864014
9,85,141623274879255,0.28235307335853577,7.2681989669799805,7.853842258453369,141623279428266,0.006872233934700489,0.4476115107536316,-0.04001167416572571
9,85,141623283961896,0.10169496387243271,7.178467750549316,7.734799385070801,141623288496259,0.0861319974064827,0.4668537676334381,-0.020005837082862854
9,85,141623293038862,0.020937198773026466,7.154539585113525,7.653443336486816,141623297596479,0.1635591685771942,0.46960264444351196,0.001679879380390048
9,85,141623302137433,0.01196411345154047,7.216155052185059,7.45364236831665,141623306670454,0.2499966025352478,0.4323398768901825,0.022449297830462456
9,85,141623311218122,0.0364905446767807,7.338787078857422,7.121040344238281,141623315757246,0.3397938013076782,0.35811975598335266,0.043676864355802536
9,85,141623320304548,0.037088751792907715,7.466803073883057,6.902096748352051,141623324840864,0.42928555607795715,0.26542094349861145,0.06643159687519073
9,85,141623329386640,0.03768695518374443,7.566105365753174,6.664011001586914,141623333924604,0.5227479338645935,0.19654589891433716,0.09147707372903824
9,85,141623338472090,0.07118647545576096,7.674978733062744,6.49770975112915,141623343014753,0.6795876026153564,0.17409659922122955,0.10995574295520782
9,85,141623347555585,-0.0933200865983963,7.950751304626465,6.0502519607543945,141623352096479,0.9133962392807007,0.13958270847797394,0.12889257073402405
9,85,141623356637739,-0.21176479756832123,7.950153350830078,5.251049518585205,141623361179914,0.9837985038757324,0.10552696883678436,0.10934487730264664
9,85,141623365716779,-0.08195417374372482,8.023134231567383,4.11505651473999,141623370262494,0.9210320711135864,0.07452555745840073,0.07070764899253845
9,85,141623374801191,-0.03409772366285324,8.069195747375488,3.435495138168335,141623379351118,0.7652614116668701,0.04306599870324135,0.011301007121801376
9,85,141623383884565,0.028115665540099144,8.048856735229492,2.9790642261505127,141623388430402,0.5555819272994995,-0.001679879380390048,-0.051770828664302826
9,85,141623392960431,0.08075776696205139,8.110472679138184,2.998206853866577,141623397517682,0.3390302062034607,-0.0377209298312664,-0.10399980843067169
9,85,141623402057050,0.11904292553663254,8.2157564163208,3.335594654083252,141623406603254,0.1699732542037964,-0.054367005825042725,-0.1408044397830963
9,85,141623411138044,0.14656038582324982,8.211568832397461,3.8871402740478516,141623415669477,0.05696318298578262,-0.03878994286060333,-0.16264286637306213
9,85,141623420211652,0.23629122972488403,8.203194618225098,4.5391845703125,141623424763471,0.0027488935738801956,0.026114489883184433,-0.16783522069454193
9,85,141623429309980,0.34576287865638733,8.26540756225586,5.048257350921631,141623433849225,0.011301007121801376,0.12568552792072296,-0.16569720208644867
9,85,141623438393109,0.4217349886894226,8.341978073120117,5.32403039932251,141623442934919,0.05497787147760391,0.23671028017997742,-0.16142113506793976
9,85,141623447477705,0.34576287865638733,8.409575462341309,5.623133182525635,141623452020124,0.1238529309630394,0.3764457106590271,-0.15561792254447937
9,85,141623456558820,0.29730820655822754,8.142775535583496,5.4759745597839355,141623461096845,0.17547103762626648,0.4537201523780823,-0.1696678251028061
